loop_index,last_step_ns,imu_time_ns,bmp_time_ns,epoch_time_ns,v_batt,alt_bmp_raw,bmp_temp,gyro_roll,gyro_pitch,gyro_yaw,accel_X,accel_Y,accel_Z,mag_X, mag_Y, mag_Z,roll,pitch,yaw,rollDot,pitchDot,yawDot,X,Y,Z,Xdot,Ydot,Zdot,Zddot,xbee_time,xbee_time_received_ns,xbee_x,xbee_y,xbee_z,xbee_qw,xbee_qx,xbee_qy,xbee_qz,xbee_roll,xbee_pitch,xbee_yaw,gps_lat,gps_lon,gps_gpsAlt,gps_ned_x,gps_ned_y,gps_ned_z,gps_spd,gps_fix,gps_sat,gps_headingNc,gps_cog,gps_gpsVsi,gps_hdop,gps_vdop,gps_year,gps_month,gps_day,gps_hour,gps_minute,gps_second,gps_time_received_ns,X_thrt,Y_thrt,Z_thrt,roll_thrt,pitch_thrt,yaw_thrt,sp_roll_dot,sp_pitch_dot,sp_yaw_dot,sp_roll_dot_ff,sp_pitch_dot_ff,sp_yaw_dot_ff,sp_roll,sp_pitch,sp_yaw,sp_roll_ff,sp_pitch_ff,sp_X,sp_Y,sp_Z,sp_Xdot,sp_Ydot,sp_Zdot,sp_Xdot_ff,sp_Ydot_ff,sp_Zdot_ff,sp_Xddot,sp_Yddot,sp_Zddot,u_roll,u_pitch,u_yaw,u_X,u_Y,u_Z,mot_1,mot_2,mot_3,mot_4,dsm_con,flight_mode,tIMU,tIMU_END,tSM,tXBEE,tGPS,tPNI,tNAV,tGUI,tCTR,tLOG,tNTP
1,1749740677952530145,1749740677950832093,1749740677950832093,1749740677952535269,16.4622,560.8423,33.8000,0.0117,-0.0192,0.0075,-0.4526,0.0885,-9.5099,0.0000,0.0000,0.0000,0.0679,-0.1416,0.0917,0.0121,-0.0179,0.0068,0.0223,0.0764,-0.1046,-0.0001,-0.0001,-0.0000,0.0000,4151581101,1749740677951022061,0.0223,0.0764,-0.1046,0.9989,0.0008,-0.0008,0.0458,0.0000,0.0000,0.0000,0.00000000,0.00000000,0.000,0.000,0.000,0.000,0.000,0,0,0.000,0.000,0.000,0.000,0.000,0,0,0,0,0,0,0,0.0000,0.0000,-0.0500,0.0000,0.0000,0.0400,-0.0997,0.1943,0.0000,0.0000,0.0000,0.0000,0.0000,0.0000,0.0000,0.0000,0.0000,0.0000,0.0000,0.0000,0.0000,0.0000,0.0000,0.0000,0.0000,0.0000,0.0000,0.0000,0.0000,0.0000,0.0000,0.0400,0.0000,0.0000,-0.0500,0.2361,0.2361,0.1748,0.1748,1,5,1749740677950836883,1749740677946299217,1749740677951047557,1749740677951029852,1749740677951059305,1749740677951061055,1749740677951385709,1749740677952496317,1749740677952531437,1749740677946297301,0
2,1749740677956791607,1749740677956201954,1749740677956201954,1749740677956796273,16.4631,560.8423,33.8000,0.0138,-0.0170,0.0064,-0.4478,0.1005,-9.5314,0.0000,0.0000,0.0000,0.0679,-0.1416,0.0917,0.0127,-0.0176,0.0066,0.0223,0.0764,-0.1046,-0.0000,-0.0002,-0.0000,0.0000,4151588293,1749740677956392256,0.0223,0.0764,-0.1046,0.9989,0.0008,-0.0008,0.0458,0.0000,0.0000,0.0000,0.00000000,0.00000000,0.000,0.000,0.000,0.000,0.000,0,0,0.000,0.000,0.000,0.000,0.000,0,0,0,0,0,0,0,0.0000,0.0000,-0.0500,0.0000,0.0000,0.0400,-0.0997,0.1943,0.0000,0.0000,0.0000,0.0000,0.0000,0.0000,0.0000,0.0000,0.0000,0.0000,0.0000,0.0000,0.0000,0.0000,0.0000,0.0000,0.0000,0.0000,0.0000,0.0000,0.0000,0.0000,0.0000,0.0400,0.0000,0.0000,-0.0500,0.2361,0.2361,0.1748,0.1748,1,5,1749740677956206412,1749740677952549559,1749740677956417710,1749740677956400172,1749740677956428917,1749740677956431000,1749740677956752197,1749740677956758529,1749740677956792773,1749740677952547767,0
3,1749740677961136180,1749740677960698961,1749740677960698961,1749740677961140846,16.4619,560.8423,33.8000,0.0107,-0.0160,0.0064,-0.4287,0.0909,-9.5242,0.0000,0.0000,0.0000,0.0679,-0.1416,0.0917,0.0120,-0.0171,0.0066,0.0223,0.0764,-0.1046,-0.0000,-0.0002,-0.0000,0.0000,4151588293,1749740677956392256,0.0223,0.0764,-0.1046,0.9989,0.0008,-0.0008,0.0458,0.0000,0.0000,0.0000,0.00000000,0.00000000,0.000,0.000,0.000,0.000,0.000,0,0,0.000,0.000,0.000,0.000,0.000,0,0,0,0,0,0,0,0.0000,0.0000,-0.0500,0.0000,0.0000,0.0400,-0.0997,0.1943,0.0000,0.0000,0.0000,0.0000,0.0000,0.0000,0.0000,0.0000,0.0000,0.0000,0.0000,0.0000,0.0000,0.0000,0.0000,0.0000,0.0000,0.0000,0.0000,0.0000,0.0000,0.0000,0.0000,0.0400,0.0000,0.0000,-0.0500,0.2361,0.2361,0.1748,0.1748,1,5,1749740677960703626,1749740677956810395,1749740677960758617,1749740677960745953,1749740677960769949,1749740677960771699,1749740677961097186,1749740677961103185,1749740677961137346,1749740677956808312,0
4,1749740677966364523,1749740677965699633,1749740677965699633,1749740677966369523,16.4610,560.8423,33.8000,0.0128,-0.0149,0.0064,-0.4335,0.0957,-9.4646,0.0000,0.0000,0.0000,0.0679,-0.1416,0.0917,0.0123,-0.0163,0.0065,0.0223,0.0764,-0.1046,-0.0000,-0.0002,-0.0001,0.0000,4151597639,1749740677965884478,0.0223,0.0764,-0.1046,0.9989,0.0008,-0.0008,0.0458,0.0000,0.0000,0.0000,0.00000000,0.00000000,0.000,0.000,0.000,0.000,0.000,0,0,0.000,0.000,0.000,0.000,0.000,0,0,0,0,0,0,0,0.0000,0.0000,-0.0500,0.0000,0.0000,0.0400,-0.0997,0.1943,0.0000,0.0000,0.0000,0.0000,0.0000,0.0000,0.0000,0.0000,0.0000,0.0000,0.0000,0.0000,0.0000,0.0000,0.0000,0.0000,0.0000,0.0000,0.0000,0.0000,0.0000,0.0000,0.0000,0.0400,0.0000,0.0000,-0.0500,0.2361,0.2361,0.1748,0.1748,1,5,1749740677965704466,1749740677961156802,1749740677965909390,1749740677965892768,1749740677965920805,1749740677965922555,1749740677966323822,1749740677966330737,1749740677966365732,1749740677961154719,0
5,1749740677971428311,1749740677970952765,1749740677970952765,1749740677971433310,16.4602,560.8423,33.8000,0.0138,-0.0181,0.0064,-0.4167,0.0933,-9.5314,0.0000,0.0000,0.0000,0.0679,-0.1416,0.0917,0.0128,-0.0169,0.0065,0.0223,0.0764,-0.1046,-0.0000,-0.0002,-0.0001,0.0000,4151597639,1749740677965884478,0.0223,0.0764,-0.1046,0.9989,0.0008,-0.0008,0.0458,0.0000,0.0000,0.0000,0.00000000,0.00000000,0.000,0.000,0.000,0.000,0.000,0,0,0.000,0.000,0.000,0.000,0.000,0,0,0,0,0,0,0,0.0000,0.0000,-0.0500,0.0000,0.0000,0.0400,-0.0997,0.1943,0.0000,0.0000,0.0000,0.0000,0.0000,0.0000,0.0000,0.0000,0.0000,0.0000,0.0000,0.0000,0.0000,0.0000,0.0000,0.0000,0.0000,0.0000,0.0000,0.0000,0.0000,0.0000,0.0000,0.0400,0.0000,0.0000,-0.0500,0.2361,0.2361,0.1748,0.1748,1,5,1749740677970957222,1749740677966385353,1749740677971050207,1749740677971037667,1749740677971061872,1749740677971063663,1749740677971389192,1749740677971395150,1749740677971429519,1749740677966383479,0
6,1749740677976255679,1749740677975677025,1749740677975677025,1749740677976260387,16.4540,560.8715,33.8000,0.0117,-0.0160,0.0043,-0.3832,0.1244,-9.5290,0.0000,0.0000,0.0000,0.0679,-0.1416,0.0917,0.0124,-0.0166,0.0057,0.0223,0.0764,-0.1046,-0.0001,-0.0002,-0.0000,0.0000,4151605238,1749740677975858953,0.0223,0.0764,-0.1046,0.9989,0.0008,-0.0008,0.0458,0.0000,0.0000,0.0000,0.00000000,0.00000000,0.000,0.000,0.000,0.000,0.000,0,0,0.000,0.000,0.000,0.000,0.000,0,0,0,0,0,0,0,0.0000,0.0000,-0.0500,0.0000,0.0000,0.0400,-0.0997,0.1943,0.0000,0.0000,0.0000,0.0000,0.0000,0.0000,0.0000,0.0000,0.0000,0.0000,0.0000,0.0000,0.0000,0.0000,0.0000,0.0000,0.0000,0.0000,0.0000,0.0000,0.0000,0.0000,0.0000,0.0400,0.0000,0.0000,-0.0500,0.2361,0.2361,0.1748,0.1748,1,5,1749740677975681441,1749740677972135819,1749740677975884491,1749740677975866993,1749740677975896197,1749740677975898030,1749740677976216769,1749740677976223309,1749740677976256887,1749740677971446225,0
7,1749740677982008436,1749740677981407369,1749740677981407369,1749740677982013102,16.4467,560.8715,33.8000,0.0160,-0.0202,0.0075,-1.0729,-0.3613,-9.5051,0.0000,0.0000,0.0000,0.0679,-0.1416,0.0917,0.0136,-0.0178,0.0063,0.0223,0.0764,-0.1046,-0.0001,-0.0002,-0.0000,0.0000,4151605238,1749740677975858953,0.0223,0.0764,-0.1046,0.9989,0.0008,-0.0008,0.0458,0.0000,0.0000,0.0000,0.00000000,0.00000000,0.000,0.000,0.000,0.000,0.000,0,0,0.000,0.000,0.000,0.000,0.000,0,0,0,0,0,0,0,0.0000,0.0000,-0.0500,0.0000,0.0000,0.0400,-0.0997,0.1943,0.0000,0.0000,0.0000,0.0000,0.0000,0.0000,0.0000,0.0000,0.0000,0.0000,0.0000,0.0000,0.0000,0.0000,0.0000,0.0000,0.0000,0.0000,0.0000,0.0000,0.0000,0.0000,0.0000,0.0400,0.0000,0.0000,-0.0500,0.2361,0.2361,0.1748,0.1748,1,5,1749740677981411868,1749740677976275468,1749740677981533598,1749740677981521017,1749740677981545179,1749740677981546971,1749740677981968484,1749740677981974442,1749740677982009602,1749740677976273510,0
8,1749740677986298726,1749740677985683078,1749740677985683078,1749740677986303476,16.4375,560.8715,33.8000,0.0053,-0.0202,0.0021,0.1605,0.6149,-9.9656,0.0000,0.0000,0.0000,0.0679,-0.1416,0.0917,0.0109,-0.0186,0.0049,0.0223,0.0764,-0.1046,-0.0000,-0.0001,-0.0001,0.0000,4151614430,1749740677985814098,0.0223,0.0764,-0.1046,0.9989,0.0008,-0.0008,0.0458,0.0000,0.0000,0.0000,0.00000000,0.00000000,0.000,0.000,0.000,0.000,0.000,0,0,0.000,0.000,0.000,0.000,0.000,0,0,0,0,0,0,0,0.0000,0.0000,-0.0500,0.0000,0.0000,0.0400,-0.0997,0.1943,0.0000,0.0000,0.0000,0.0000,0.0000,0.0000,0.0000,0.0000,0.0000,0.0000,0.0000,0.0000,0.0000,0.0000,0.0000,0.0000,0.0000,0.0000,0.0000,0.0000,0.0000,0.0000,0.0000,0.0400,0.0000,0.0000,-0.0500,0.2361,0.2361,0.1748,0.1748,1,5,1749740677985687786,1749740677982027933,1749740677985838886,1749740677985822013,1749740677985850384,1749740677985852133,1749740677986258900,1749740677986265065,1749740677986299934,1749740677982026058,0
9,1749740677991159547,1749740677990579560,1749740677990579560,1749740677991164338,16.4293,560.8715,33.8000,0.0085,0.0043,-0.0234,-0.8047,0.7848,-9.6292,0.0000,0.0000,0.0000,0.0678,-0.1415,0.0917,0.0101,-0.0110,-0.0045,0.0223,0.0764,-0.1046,-0.0001,-0.0001,-0.0001,0.0000,4151622329,1749740677990762405,0.0223,0.0764,-0.1046,0.9989,0.0008,-0.0008,0.0458,0.0000,0.0000,0.0000,0.00000000,0.00000000,0.000,0.000,0.000,0.000,0.000,0,0,0.000,0.000,0.000,0.000,0.000,0,0,0,0,0,0,0,0.0000,0.0000,-0.0500,0.0000,0.0000,0.0400,-0.0997,0.1943,0.0000,0.0000,0.0000,0.0000,0.0000,0.0000,0.0000,0.0000,0.0000,0.0000,0.0000,0.0000,0.0000,0.0000,0.0000,0.0000,0.0000,0.0000,0.0000,0.0000,0.0000,0.0000,0.0000,0.0400,0.0000,0.0000,-0.0500,0.2361,0.2361,0.1748,0.1748,1,5,1749740677990584351,1749740677986317890,1749740677990788775,1749740677990770987,1749740677990800690,1749740677990802481,1749740677991120429,1749740677991127303,1749740677991160755,1749740677986316015,0
10,1749740677996001121,1749740677995573109,1749740677995573109,1749740677996005829,16.4218,560.8715,33.8000,0.0373,-0.0181,-0.0234,-0.7664,0.2871,-8.6582,0.0000,0.0000,0.0000,0.0679,-0.1415,0.0917,0.0191,-0.0134,-0.0108,0.0223,0.0764,-0.1046,-0.0001,-0.0001,-0.0001,0.0000,4151622329,1749740677990762405,0.0223,0.0764,-0.1046,0.9989,0.0008,-0.0008,0.0458,0.0000,0.0000,0.0000,0.00000000,0.00000000,0.000,0.000,0.000,0.000,0.000,0,0,0.000,0.000,0.000,0.000,0.000,0,0,0,0,0,0,0,0.0000,0.0000,-0.0500,0.0000,0.0000,0.0400,-0.0997,0.1943,0.0000,0.0000,0.0000,0.0000,0.0000,0.0000,0.0000,0.0000,0.0000,0.0000,0.0000,0.0000,0.0000,0.0000,0.0000,0.0000,0.0000,0.0000,0.0000,0.0000,0.0000,0.0000,0.0000,0.0400,0.0000,0.0000,-0.0500,0.2361,0.2361,0.1748,0.1748,1,5,1749740677995577650,1749740677991179169,1749740677995625559,1749740677995612394,1749740677995637182,1749740677995638973,1749740677995962878,1749740677995969085,1749740677996002330,1749740677991177253,0
11,1749740678001326116,1749740678000742754,1749740678000742754,1749740678001331157,16.4131,560.8715,33.8000,0.0138,-0.0394,0.0107,-0.7400,0.9355,-9.2403,0.0000,0.0000,0.0000,0.0679,-0.1416,0.0917,0.0174,-0.0221,-0.0037,0.0223,0.0764,-0.1046,-0.0000,-0.0001,0.0000,0.0000,4151631447,1749740678000926682,0.0223,0.0764,-0.1046,0.9989,0.0008,-0.0008,0.0458,0.0000,0.0000,0.0000,0.00000000,0.00000000,0.000,0.000,0.000,0.000,0.000,0,0,0.000,0.000,0.000,0.000,0.000,0,0,0,0,0,0,0,0.0000,0.0000,-0.0500,0.0000,0.0000,0.0400,-0.0997,0.1943,0.0000,0.0000,0.0000,0.0000,0.0000,0.0000,0.0000,0.0000,0.0000,0.0000,0.0000,0.0000,0.0000,0.0000,0.0000,0.0000,0.0000,0.0000,0.0000,0.0000,0.0000,0.0000,0.0000,0.0400,0.0000,0.0000,-0.0500,0.2361,0.2361,0.1748,0.1748,1,5,1749740678000747336,1749740677996021326,1749740678000951803,1749740678000934597,1749740678000963551,1749740678000965342,1749740678001286789,1749740678001293038,1749740678001327365,1749740677996019410,0
12,1749740678006518466,1749740678005840244,1749740678005840244,1749740678006523132,16.4044,560.8715,33.8000,0.0128,-0.0341,0.0288,-1.6405,0.3134,-7.3531,0.0000,0.0000,0.0000,0.0678,-0.1418,0.0917,0.0158,-0.0261,0.0071,0.0223,0.0764,-0.1046,-0.0001,0.0000,-0.0001,0.0000,4151638721,1749740678006030504,0.0223,0.0764,-0.1046,0.9989,0.0008,-0.0008,0.0458,0.0000,0.0000,0.0000,0.00000000,0.00000000,0.000,0.000,0.000,0.000,0.000,0,0,0.000,0.000,0.000,0.000,0.000,0,0,0,0,0,0,0,0.0000,0.0000,-0.0500,0.0000,0.0000,0.0400,-0.0997,0.1943,0.0000,0.0000,0.0000,0.0000,0.0000,0.0000,0.0000,0.0000,0.0000,0.0000,0.0000,0.0000,0.0000,0.0000,0.0000,0.0000,0.0000,0.0000,0.0000,0.0000,0.0000,0.0000,0.0000,0.0400,0.0000,0.0000,-0.0500,0.2361,0.2361,0.1748,0.1748,1,5,1749740678005845160,1749740678001346654,1749740678006056417,1749740678006038711,1749740678006068123,1749740678006069914,1749740678006478889,1749740678006484971,1749740678006519632,1749740678001344821,0
13,1749740678011352048,1749740678010917661,1749740678010917661,1749740678011357172,16.3887,560.8715,33.8000,-0.0224,-0.0021,0.0138,-0.1030,0.3541,-8.4244,0.0000,0.0000,0.0000,0.0676,-0.1418,0.0917,0.0031,-0.0181,0.0094,0.0223,0.0764,-0.1046,-0.0001,0.0000,-0.0001,0.0000,4151638721,1749740678006030504,0.0223,0.0764,-0.1046,0.9989,0.0008,-0.0008,0.0458,0.0000,0.0000,0.0000,0.00000000,0.00000000,0.000,0.000,0.000,0.000,0.000,0,0,0.000,0.000,0.000,0.000,0.000,0,0,0,0,0,0,0,0.0000,0.0000,-0.0500,0.0000,0.0000,0.0400,-0.0997,0.1943,0.0000,0.0000,0.0000,0.0000,0.0000,0.0000,0.0000,0.0000,0.0000,0.0000,0.0000,0.0000,0.0000,0.0000,0.0000,0.0000,0.0000,0.0000,0.0000,0.0000,0.0000,0.0000,0.0000,0.0400,0.0000,0.0000,-0.0500,0.2361,0.2361,0.1748,0.1748,1,5,1749740678010922118,1749740678006539087,1749740678010977151,1749740678010964153,1749740678010988441,1749740678010990315,1749740678011312679,1749740678011318595,1749740678011353256,1749740678006537129,0
14,1749740678016560566,1749740678015970746,1749740678015970746,1749740678016565273,16.3730,560.8715,33.8000,0.0128,-0.0202,0.0788,-0.5149,0.3326,-8.2025,0.0000,0.0000,0.0000,0.0675,-0.1419,0.0917,0.0063,-0.0188,0.0325,0.0223,0.0764,-0.1046,-0.0001,-0.0001,-0.0001,0.0000,4151647552,1749740678016160548,0.0223,0.0764,-0.1046,0.9989,0.0008,-0.0008,0.0458,0.0000,0.0000,0.0000,0.00000000,0.00000000,0.000,0.000,0.000,0.000,0.000,0,0,0.000,0.000,0.000,0.000,0.000,0,0,0,0,0,0,0,0.0000,0.0000,-0.0500,0.0000,0.0000,0.0400,-0.0997,0.1943,0.0000,0.0000,0.0000,0.0000,0.0000,0.0000,0.0000,0.0000,0.0000,0.0000,0.0000,0.0000,0.0000,0.0000,0.0000,0.0000,0.0000,0.0000,0.0000,0.0000,0.0000,0.0000,0.0000,0.0400,0.0000,0.0000,-0.0500,0.2361,0.2361,0.1748,0.1748,1,5,1749740678015975204,1749740678011372711,1749740678016186669,1749740678016168797,1749740678016198042,1749740678016200042,1749740678016521031,1749740678016526946,1749740678016561774,1749740678011370336,0
15,1749740678021517667,1749740678021042246,1749740678021042246,1749740678021522375,16.3602,560.8715,33.8000,0.0405,-0.0021,0.0415,0.6514,1.2920,-9.8845,0.0000,0.0000,0.0000,0.0676,-0.1418,0.0917,0.0177,-0.0132,0.0355,0.0223,0.0764,-0.1046,-0.0001,-0.0001,-0.0001,0.0000,4151647552,1749740678016160548,0.0223,0.0764,-0.1046,0.9989,0.0008,-0.0008,0.0458,0.0000,0.0000,0.0000,0.00000000,0.00000000,0.000,0.000,0.000,0.000,0.000,0,0,0.000,0.000,0.000,0.000,0.000,0,0,0,0,0,0,0,0.0000,0.0000,-0.0500,0.0000,0.0000,0.0400,-0.0997,0.1943,0.0000,0.0000,0.0000,0.0000,0.0000,0.0000,0.0000,0.0000,0.0000,0.0000,0.0000,0.0000,0.0000,0.0000,0.0000,0.0000,0.0000,0.0000,0.0000,0.0000,0.0000,0.0000,0.0000,0.0400,0.0000,0.0000,-0.0500,0.2361,0.2361,0.1748,0.1748,1,5,1749740678021046703,1749740678016580104,1749740678021139188,1749740678021126607,1749740678021151186,1749740678021153019,1749740678021478424,1749740678021484340,1749740678021518876,1749740678016578146,0
16,1749740678026179692,1749740678025542297,1749740678025542297,1749740678026185525,16.3488,560.8715,33.8000,0.0107,-0.0394,0.0714,-0.1317,0.6197,-10.0229,0.0000,0.0000,0.0000,0.0674,-0.1418,0.0916,0.0154,-0.0220,0.0475,0.0223,0.0764,-0.1046,-0.0001,0.0000,-0.0000,0.0000,4151655099,1749740678025694814,0.0223,0.0764,-0.1046,0.9990,0.0008,-0.0008,0.0458,0.0000,0.0000,0.0000,0.00000000,0.00000000,0.000,0.000,0.000,0.000,0.000,0,0,0.000,0.000,0.000,0.000,0.000,0,0,0,0,0,0,0,0.0000,0.0000,-0.0500,0.0000,0.0000,0.0400,-0.0997,0.1943,0.0000,0.0000,0.0000,0.0000,0.0000,0.0000,0.0000,0.0000,0.0000,0.0000,0.0000,0.0000,0.0000,0.0000,0.0000,0.0000,0.0000,0.0000,0.0000,0.0000,0.0000,0.0000,0.0000,0.0400,0.0000,0.0000,-0.0500,0.2361,0.2361,0.1748,0.1748,1,5,1749740678025546755,1749740678022273002,1749740678025720934,1749740678025702771,1749740678025732641,1749740678025734391,1749740678026054171,1749740678026060879,1749740678026181900,1749740678021534998,0
17,1749740678031349259,1749740678030849549,1749740678030849549,1749740678031353966,16.3372,560.8715,33.8000,0.0011,-0.0277,0.0107,-1.1543,0.0479,-8.4530,0.0000,0.0000,0.0000,0.0673,-0.1419,0.0916,0.0106,-0.0239,0.0352,0.0223,0.0764,-0.1046,-0.0001,0.0000,-0.0000,0.0000,4151655099,1749740678025694814,0.0223,0.0764,-0.1046,0.9990,0.0008,-0.0008,0.0458,0.0000,0.0000,0.0000,0.00000000,0.00000000,0.000,0.000,0.000,0.000,0.000,0,0,0.000,0.000,0.000,0.000,0.000,0,0,0,0,0,0,0,0.0000,0.0000,-0.0500,0.0000,0.0000,0.0400,-0.0997,0.1943,0.0000,0.0000,0.0000,0.0000,0.0000,0.0000,0.0000,0.0000,0.0000,0.0000,0.0000,0.0000,0.0000,0.0000,0.0000,0.0000,0.0000,0.0000,0.0000,0.0000,0.0000,0.0000,0.0000,0.0400,0.0000,0.0000,-0.0500,0.2361,0.2361,0.1748,0.1748,1,5,1749740678030854090,1749740678026200439,1749740678030967655,1749740678030954865,1749740678030979403,1749740678030981236,1749740678031309057,1749740678031315639,1749740678031350425,1749740678026198648,0
18,1749740678036704795,1749740678036172007,1749740678036172007,1749740678036709419,16.3280,560.8715,33.8000,-0.0149,-0.0213,0.0501,-1.1064,1.5624,-8.7083,0.0000,0.0000,0.0000,0.0672,-0.1420,0.0914,0.0021,-0.0230,0.0402,0.0223,0.0764,-0.1046,-0.0002,0.0000,0.0001,0.0000,4151663858,1749740678036302111,0.0223,0.0764,-0.1046,0.9990,0.0008,-0.0008,0.0457,0.0000,0.0000,0.0000,0.00000000,0.00000000,0.000,0.000,0.000,0.000,0.000,0,0,0.000,0.000,0.000,0.000,0.000,0,0,0,0,0,0,0,0.0000,0.0000,-0.0500,0.0000,0.0000,0.0400,-0.0997,0.1943,0.0000,0.0000,0.0000,0.0000,0.0000,0.0000,0.0000,0.0000,0.0000,0.0000,0.0000,0.0000,0.0000,0.0000,0.0000,0.0000,0.0000,0.0000,0.0000,0.0000,0.0000,0.0000,0.0000,0.0400,0.0000,0.0000,-0.0500,0.2361,0.2361,0.1748,0.1748,1,5,1749740678036176382,1749740678031370089,1749740678036327482,1749740678036310193,1749740678036338896,1749740678036340646,1749740678036665134,1749740678036671675,1749740678036705961,1749740678031367756,0
19,1749740678041149647,1749740678040571575,1749740678040571575,1749740678041154354,16.3198,560.8715,33.8000,0.0000,0.0043,0.0437,-0.2658,-0.4307,-7.4223,0.0000,0.0000,0.0000,0.0669,-0.1419,0.0915,0.0014,-0.0139,0.0413,0.0223,0.0764,-0.1045,-0.0005,-0.0002,0.0006,0.0000,4151672247,1749740678040754212,0.0223,0.0764,-0.1045,0.9990,0.0008,-0.0007,0.0457,0.0000,0.0000,0.0000,0.00000000,0.00000000,0.000,0.000,0.000,0.000,0.000,0,0,0.000,0.000,0.000,0.000,0.000,0,0,0,0,0,0,0,0.0000,0.0000,-0.0500,0.0000,0.0000,0.0400,-0.0997,0.1943,0.0000,0.0000,0.0000,0.0000,0.0000,0.0000,0.0000,0.0000,0.0000,0.0000,0.0000,0.0000,0.0000,0.0000,0.0000,0.0000,0.0000,0.0000,0.0000,0.0000,0.0000,0.0000,0.0000,0.0400,0.0000,0.0000,-0.0500,0.2361,0.2361,0.1748,0.1748,1,5,1749740678040576075,1749740678036724250,1749740678040779791,1749740678040762086,1749740678040791997,1749740678040793747,1749740678041111653,1749740678041117694,1749740678041150855,1749740678036722250,0
20,1749740678046360332,1749740678045887993,1749740678045887993,1749740678046365456,16.3111,560.8715,33.8000,0.0170,0.0043,0.0149,-0.0503,-0.6771,-9.9083,0.0000,0.0000,0.0000,0.0670,-0.1418,0.0915,0.0066,-0.0079,0.0325,0.0223,0.0764,-0.1045,-0.0005,-0.0002,0.0006,0.0000,4151672247,1749740678040754212,0.0223,0.0764,-0.1045,0.9990,0.0008,-0.0007,0.0457,0.0000,0.0000,0.0000,0.00000000,0.00000000,0.000,0.000,0.000,0.000,0.000,0,0,0.000,0.000,0.000,0.000,0.000,0,0,0,0,0,0,0,0.0000,0.0000,-0.0500,0.0000,0.0000,0.0400,-0.0997,0.1943,0.0000,0.0000,0.0000,0.0000,0.0000,0.0000,0.0000,0.0000,0.0000,0.0000,0.0000,0.0000,0.0000,0.0000,0.0000,0.0000,0.0000,0.0000,0.0000,0.0000,0.0000,0.0000,0.0000,0.0400,0.0000,0.0000,-0.0500,0.2361,0.2361,0.1748,0.1748,1,5,1749740678045893117,1749740678041169185,1749740678045941650,1749740678045929069,1749740678045953315,1749740678045955107,1749740678046321546,1749740678046327545,1749740678046361540,1749740678041167269,0
21,1749740678051525690,1749740678050942495,1749740678050942495,1749740678051530440,16.3036,560.8715,33.8000,0.0021,-0.0192,-0.0469,-0.3065,0.1579,-8.2407,0.0000,0.0000,0.0000,0.0671,-0.1418,0.0918,0.0051,-0.0116,0.0061,0.0223,0.0764,-0.1045,-0.0005,-0.0002,0.0006,0.0000,4151681149,1749740678051127756,0.0223,0.0764,-0.1045,0.9989,0.0008,-0.0007,0.0459,0.0000,0.0000,0.0000,0.00000000,0.00000000,0.000,0.000,0.000,0.000,0.000,0,0,0.000,0.000,0.000,0.000,0.000,0,0,0,0,0,0,0,0.0000,0.0000,-0.0500,0.0000,0.0000,0.0400,-0.0997,0.1943,0.0000,0.0000,0.0000,0.0000,0.0000,0.0000,0.0000,0.0000,0.0000,0.0000,0.0000,0.0000,0.0000,0.0000,0.0000,0.0000,0.0000,0.0000,0.0000,0.0000,0.0000,0.0000,0.0000,0.0400,0.0000,0.0000,-0.0500,0.2361,0.2361,0.1748,0.1748,1,5,1749740678050946911,1749740678046380620,1749740678051151877,1749740678051135713,1749740678051163667,1749740678051165458,1749740678051485655,1749740678051491654,1749740678051526940,1749740678046378370,0
22,1749740678056602564,1749740678056129683,1749740678056129683,1749740678056607271,16.2975,560.8715,33.8000,0.0234,-0.0426,-0.0352,-0.9125,0.1436,-9.7294,0.0000,0.0000,0.0000,0.0671,-0.1419,0.0918,0.0112,-0.0220,-0.0077,0.0223,0.0764,-0.1045,-0.0005,-0.0002,0.0006,0.0000,4151681149,1749740678051127756,0.0223,0.0764,-0.1045,0.9989,0.0008,-0.0007,0.0459,0.0000,0.0000,0.0000,0.00000000,0.00000000,0.000,0.000,0.000,0.000,0.000,0,0,0.000,0.000,0.000,0.000,0.000,0,0,0,0,0,0,0,0.0000,0.0000,-0.0500,0.0000,0.0000,0.0400,-0.0997,0.1943,0.0000,0.0000,0.0000,0.0000,0.0000,0.0000,0.0000,0.0000,0.0000,0.0000,0.0000,0.0000,0.0000,0.0000,0.0000,0.0000,0.0000,0.0000,0.0000,0.0000,0.0000,0.0000,0.0000,0.0400,0.0000,0.0000,-0.0500,0.2361,0.2361,0.1748,0.1748,1,5,1749740678056134141,1749740678051545687,1749740678056226584,1749740678056214044,1749740678056237832,1749740678056239623,1749740678056562279,1749740678056568778,1749740678056603772,1749740678051543729,0
23,1749740678061490176,1749740678060940642,1749740678060940642,1749740678061495342,16.2915,560.8715,33.8000,0.0117,-0.0160,-0.0469,-1.4226,0.4163,-8.4172,0.0000,0.0000,0.0000,0.0672,-0.1419,0.0923,0.0114,-0.0200,-0.0207,0.0223,0.0764,-0.1046,-0.0004,-0.0001,0.0002,0.0000,4151688413,1749740678061091617,0.0223,0.0764,-0.1046,0.9989,0.0009,-0.0007,0.0461,0.0000,0.0000,0.0000,0.00000000,0.00000000,0.000,0.000,0.000,0.000,0.000,0,0,0.000,0.000,0.000,0.000,0.000,0,0,0,0,0,0,0,0.0000,0.0000,-0.0500,0.0000,0.0000,0.0400,-0.0997,0.1943,0.0000,0.0000,0.0000,0.0000,0.0000,0.0000,0.0000,0.0000,0.0000,0.0000,0.0000,0.0000,0.0000,0.0000,0.0000,0.0000,0.0000,0.0000,0.0000,0.0000,0.0000,0.0000,0.0000,0.0400,0.0000,0.0000,-0.0500,0.2361,0.2361,0.1748,0.1748,1,5,1749740678060945058,1749740678056622394,1749740678061115696,1749740678061099532,1749740678061127236,1749740678061128986,1749740678061450058,1749740678061456349,1749740678061491385,1749740678056620477,0
24,1749740678066886956,1749740678066298219,1749740678066298219,1749740678066891663,16.2867,560.8715,33.8000,0.0032,0.0021,-0.0330,-0.4119,1.2633,-9.1520,0.0000,0.0000,0.0000,0.0671,-0.1419,0.0928,0.0087,-0.0126,-0.0248,0.0223,0.0764,-0.1047,-0.0005,-0.0000,-0.0010,0.0000,4151696918,1749740678066488146,0.0223,0.0764,-0.1047,0.9989,0.0010,-0.0007,0.0464,0.0000,0.0000,0.0000,0.00000000,0.00000000,0.000,0.000,0.000,0.000,0.000,0,0,0.000,0.000,0.000,0.000,0.000,0,0,0,0,0,0,0,0.0000,0.0000,-0.0500,0.0000,0.0000,0.0400,-0.0997,0.1943,0.0000,0.0000,0.0000,0.0000,0.0000,0.0000,0.0000,0.0000,0.0000,0.0000,0.0000,0.0000,0.0000,0.0000,0.0000,0.0000,0.0000,0.0000,0.0000,0.0000,0.0000,0.0000,0.0000,0.0400,0.0000,0.0000,-0.0500,0.2361,0.2361,0.1748,0.1748,1,5,1749740678066302677,1749740678061510923,1749740678066513934,1749740678066496561,1749740678066525640,1749740678066527431,1749740678066847420,1749740678066853461,1749740678066888164,1749740678061508757,0
25,1749740678071966870,1749740678071436832,1749740678071436832,1749740678071971744,16.2794,560.8715,33.8000,0.0213,0.0064,-0.0138,0.0910,-0.2847,-9.4980,0.0000,0.0000,0.0000,0.0671,-0.1418,0.0928,0.0129,-0.0063,-0.0212,0.0223,0.0764,-0.1047,-0.0005,-0.0000,-0.0010,0.0000,4151696918,1749740678066488146,0.0223,0.0764,-0.1047,0.9989,0.0010,-0.0007,0.0464,0.0000,0.0000,0.0000,0.00000000,0.00000000,0.000,0.000,0.000,0.000,0.000,0,0,0.000,0.000,0.000,0.000,0.000,0,0,0,0,0,0,0,0.0000,0.0000,-0.0500,0.0000,0.0000,0.0400,-0.0997,0.1943,0.0000,0.0000,0.0000,0.0000,0.0000,0.0000,0.0000,0.0000,0.0000,0.0000,0.0000,0.0000,0.0000,0.0000,0.0000,0.0000,0.0000,0.0000,0.0000,0.0000,0.0000,0.0000,0.0000,0.0400,0.0000,0.0000,-0.0500,0.2361,0.2361,0.1748,0.1748,1,5,1749740678071441290,1749740678066907994,1749740678071592307,1749740678071579850,1749740678071603471,1749740678071605263,1749740678071926835,1749740678071933126,1749740678071968078,1749740678066906036,0
26,1749740678075853689,1749740678075365561,1749740678075365561,1749740678075858688,16.2789,560.8231,33.8000,0.0383,-0.0202,-0.0160,-0.5412,-1.5887,-9.4145,0.0000,0.0000,0.0000,0.0672,-0.1418,0.0931,0.0214,-0.0109,-0.0194,0.0223,0.0765,-0.1047,-0.0006,0.0001,-0.0014,0.0000,4151705835,1749740678075455338,0.0223,0.0765,-0.1047,0.9989,0.0009,-0.0007,0.0465,0.0000,0.0000,0.0000,0.00000000,0.00000000,0.000,0.000,0.000,0.000,0.000,0,0,0.000,0.000,0.000,0.000,0.000,0,0,0,0,0,0,0,0.0000,0.0000,-0.0500,0.0000,0.0000,0.0400,-0.0997,0.1943,0.0000,0.0000,0.0000,0.0000,0.0000,0.0000,0.0000,0.0000,0.0000,0.0000,0.0000,0.0000,0.0000,0.0000,0.0000,0.0000,0.0000,0.0000,0.0000,0.0000,0.0000,0.0000,0.0000,0.0400,0.0000,0.0000,-0.0500,0.2361,0.2361,0.1748,0.1748,1,5,1749740678075369977,1749740678072836394,1749740678075480250,1749740678075463212,1749740678075491707,1749740678075493707,1749740678075815445,1749740678075821569,1749740678075855147,1749740678071985575,0
27,1749740678081491137,1749740678080926021,1749740678080926021,1749740678081495886,16.2792,560.8231,33.8000,-0.0053,-0.0181,-0.0170,-1.0777,0.6077,-8.1595,0.0000,0.0000,0.0000,0.0673,-0.1418,0.0931,0.0125,-0.0133,-0.0186,0.0223,0.0765,-0.1047,-0.0006,0.0001,-0.0014,0.0000,4151705835,1749740678075455338,0.0223,0.0765,-0.1047,0.9989,0.0009,-0.0007,0.0465,0.0000,0.0000,0.0000,0.00000000,0.00000000,0.000,0.000,0.000,0.000,0.000,0,0,0.000,0.000,0.000,0.000,0.000,0,0,0,0,0,0,0,0.0000,0.0000,-0.0500,0.0000,0.0000,0.0400,-0.0997,0.1943,0.0000,0.0000,0.0000,0.0000,0.0000,0.0000,0.0000,0.0000,0.0000,0.0000,0.0000,0.0000,0.0000,0.0000,0.0000,0.0000,0.0000,0.0000,0.0000,0.0000,0.0000,0.0000,0.0000,0.0400,0.0000,0.0000,-0.0500,0.2361,0.2361,0.1748,0.1748,1,5,1749740678080930396,1749740678075873727,1749740678081114907,1749740678081102367,1749740678081126405,1749740678081128238,1749740678081450977,1749740678081457101,1749740678081492345,1749740678075871811,0
28,1749740678086759312,1749740678086292472,1749740678086292472,1749740678086764020,16.2818,560.8231,33.8000,-0.0266,-0.0064,0.0458,-0.3928,0.4020,-10.7195,0.0000,0.0000,0.0000,0.0671,-0.1418,0.0931,-0.0006,-0.0110,0.0028,0.0223,0.0765,-0.1048,-0.0004,0.0001,-0.0015,0.0000,4151714266,1749740678086360169,0.0223,0.0765,-0.1048,0.9989,0.0008,-0.0007,0.0465,0.0000,0.0000,0.0000,0.00000000,0.00000000,0.000,0.000,0.000,0.000,0.000,0,0,0.000,0.000,0.000,0.000,0.000,0,0,0,0,0,0,0,0.0000,0.0000,-0.0500,0.0000,0.0000,0.0400,-0.0997,0.1943,0.0000,0.0000,0.0000,0.0000,0.0000,0.0000,0.0000,0.0000,0.0000,0.0000,0.0000,0.0000,0.0000,0.0000,0.0000,0.0000,0.0000,0.0000,0.0000,0.0000,0.0000,0.0000,0.0000,0.0400,0.0000,0.0000,-0.0500,0.2361,0.2361,0.1748,0.1748,1,5,1749740678086296888,1749740678081510967,1749740678086385832,1749740678086368210,1749740678086397122,1749740678086398913,1749740678086720027,1749740678086725943,1749740678086760520,1749740678081509092,0
29,1749740678091078810,1749740678090495281,1749740678090495281,1749740678091084101,16.2833,560.8231,33.8000,0.0160,-0.0107,0.0522,0.7927,0.1483,-8.7560,0.0000,0.0000,0.0000,0.0670,-0.1417,0.0927,0.0049,-0.0109,0.0193,0.0223,0.0764,-0.1048,0.0000,-0.0001,-0.0015,0.0000,4151722500,1749740678090678292,0.0223,0.0764,-0.1048,0.9989,0.0008,-0.0007,0.0463,0.0000,0.0000,0.0000,0.00000000,0.00000000,0.000,0.000,0.000,0.000,0.000,0,0,0.000,0.000,0.000,0.000,0.000,0,0,0,0,0,0,0,0.0000,0.0000,-0.0500,0.0000,0.0000,0.0400,-0.0997,0.1943,0.0000,0.0000,0.0000,0.0000,0.0000,0.0000,0.0000,0.0000,0.0000,0.0000,0.0000,0.0000,0.0000,0.0000,0.0000,0.0000,0.0000,0.0000,0.0000,0.0000,0.0000,0.0000,0.0000,0.0400,0.0000,0.0000,-0.0500,0.2361,0.2361,0.1748,0.1748,1,5,1749740678090499988,1749740678086778601,1749740678090703913,1749740678090686125,1749740678090715245,1749740678090717328,1749740678091038442,1749740678091045024,1749740678091080226,1749740678086776643,0
30,1749740678096074947,1749740678095639393,1749740678095639393,1749740678096079612,16.2852,560.8231,33.8000,0.0607,-0.0213,0.0224,-0.4239,-1.6006,-9.3310,0.0000,0.0000,0.0000,0.0672,-0.1417,0.0927,0.0235,-0.0144,0.0203,0.0223,0.0764,-0.1048,0.0000,-0.0001,-0.0015,0.0000,4151722500,1749740678090678292,0.0223,0.0764,-0.1048,0.9989,0.0008,-0.0007,0.0463,0.0000,0.0000,0.0000,0.00000000,0.00000000,0.000,0.000,0.000,0.000,0.000,0,0,0.000,0.000,0.000,0.000,0.000,0,0,0,0,0,0,0,0.0000,0.0000,-0.0500,0.0000,0.0000,0.0400,-0.0997,0.1943,0.0000,0.0000,0.0000,0.0000,0.0000,0.0000,0.0000,0.0000,0.0000,0.0000,0.0000,0.0000,0.0000,0.0000,0.0000,0.0000,0.0000,0.0000,0.0000,0.0000,0.0000,0.0000,0.0000,0.0400,0.0000,0.0000,-0.0500,0.2361,0.2361,0.1748,0.1748,1,5,1749740678095643892,1749740678091099515,1749740678095698717,1749740678095685594,1749740678095710507,1749740678095712298,1749740678096035286,1749740678096041285,1749740678096076113,1749740678091097140,0
31,1749740678100989847,1749740678100398652,1749740678100398652,1749740678100994554,16.2879,560.8231,33.8000,-0.0011,-0.0437,0.0128,-1.3364,0.1244,-10.6623,0.0000,0.0000,0.0000,0.0673,-0.1418,0.0920,0.0153,-0.0241,0.0178,0.0223,0.0764,-0.1047,0.0002,-0.0002,-0.0010,0.0000,4151731653,1749740678100589371,0.0223,0.0764,-0.1047,0.9989,0.0008,-0.0008,0.0460,0.0000,0.0000,0.0000,0.00000000,0.00000000,0.000,0.000,0.000,0.000,0.000,0,0,0.000,0.000,0.000,0.000,0.000,0,0,0,0,0,0,0,0.0000,0.0000,-0.0500,0.0000,0.0000,0.0400,-0.0997,0.1943,0.0000,0.0000,0.0000,0.0000,0.0000,0.0000,0.0000,0.0000,0.0000,0.0000,0.0000,0.0000,0.0000,0.0000,0.0000,0.0000,0.0000,0.0000,0.0000,0.0000,0.0000,0.0000,0.0000,0.0400,0.0000,0.0000,-0.0500,0.2361,0.2361,0.1748,0.1748,1,5,1749740678100403110,1749740678096094902,1749740678100615533,1749740678100597661,1749740678100627031,1749740678100629198,1749740678100949895,1749740678100956519,1749740678100991013,1749740678096092985,0
32,1749740678105929534,1749740678105466985,1749740678105466985,1749740678105934242,16.2920,560.8231,33.8000,-0.0213,-0.0064,0.0597,-0.5939,1.4212,-8.4792,0.0000,0.0000,0.0000,0.0671,-0.1418,0.0920,0.0031,-0.0182,0.0318,0.0223,0.0764,-0.1047,0.0002,-0.0002,-0.0010,0.0000,4151731653,1749740678100589371,0.0223,0.0764,-0.1047,0.9989,0.0008,-0.0008,0.0460,0.0000,0.0000,0.0000,0.00000000,0.00000000,0.000,0.000,0.000,0.000,0.000,0,0,0.000,0.000,0.000,0.000,0.000,0,0,0,0,0,0,0,0.0000,0.0000,-0.0500,0.0000,0.0000,0.0400,-0.0997,0.1943,0.0000,0.0000,0.0000,0.0000,0.0000,0.0000,0.0000,0.0000,0.0000,0.0000,0.0000,0.0000,0.0000,0.0000,0.0000,0.0000,0.0000,0.0000,0.0000,0.0000,0.0000,0.0000,0.0000,0.0400,0.0000,0.0000,-0.0500,0.2361,0.2361,0.1748,0.1748,1,5,1749740678105471443,1749740678101009135,1749740678105557054,1749740678105544306,1749740678105568718,1749740678105570426,1749740678105890374,1749740678105896623,1749740678105930701,1749740678101007177,0
33,1749740678111602226,1749740678111038194,1749740678111038194,1749740678111606934,16.3029,560.8231,33.8000,0.0522,0.0149,0.0469,0.6610,-0.3134,-7.5965,0.0000,0.0000,0.0000,0.0671,-0.1417,0.0917,0.0195,-0.0072,0.0368,0.0223,0.0764,-0.1046,0.0001,-0.0004,-0.0002,0.0000,4151738772,1749740678111198501,0.0223,0.0764,-0.1046,0.9989,0.0007,-0.0010,0.0458,0.0000,0.0000,0.0000,0.00000000,0.00000000,0.000,0.000,0.000,0.000,0.000,0,0,0.000,0.000,0.000,0.000,0.000,0,0,0,0,0,0,0,0.0000,0.0000,-0.0500,0.0000,0.0000,0.0400,-0.0997,0.1943,0.0000,0.0000,0.0000,0.0000,0.0000,0.0000,0.0000,0.0000,0.0000,0.0000,0.0000,0.0000,0.0000,0.0000,0.0000,0.0000,0.0000,0.0000,0.0000,0.0000,0.0000,0.0000,0.0000,0.0400,0.0000,0.0000,-0.0500,0.2361,0.2361,0.1748,0.1748,1,5,1749740678111042651,1749740678105949947,1749740678111223872,1749740678111206375,1749740678111235703,1749740678111237494,1749740678111561608,1749740678111567773,1749740678111603434,1749740678105947823,0
34,1749740678116359694,1749740678115686971,1749740678115686971,1749740678116364651,16.3133,560.8231,33.8000,0.0671,-0.0437,-0.0533,-0.8981,-2.2514,-9.6292,0.0000,0.0000,0.0000,0.0675,-0.1417,0.0915,0.0354,-0.0193,0.0068,0.0223,0.0764,-0.1046,0.0005,-0.0003,0.0002,0.0000,4151747279,1749740678115958843,0.0223,0.0764,-0.1046,0.9990,0.0007,-0.0010,0.0457,0.0000,0.0000,0.0000,0.00000000,0.00000000,0.000,0.000,0.000,0.000,0.000,0,0,0.000,0.000,0.000,0.000,0.000,0,0,0,0,0,0,0,0.0000,0.0000,-0.0500,0.0000,0.0000,0.0400,-0.0997,0.1943,0.0000,0.0000,0.0000,0.0000,0.0000,0.0000,0.0000,0.0000,0.0000,0.0000,0.0000,0.0000,0.0000,0.0000,0.0000,0.0000,0.0000,0.0000,0.0000,0.0000,0.0000,0.0000,0.0000,0.0400,0.0000,0.0000,-0.0500,0.2361,0.2361,0.1748,0.1748,1,5,1749740678115691679,1749740678111621473,1749740678115981881,1749740678115966925,1749740678115993587,1749740678115995379,1749740678116320117,1749740678116326449,1749740678116360860,1749740678111619515,0
35,1749740678121724520,1749740678121182400,1749740678121182400,1749740678121729477,16.3212,560.8231,33.8000,-0.0746,-0.0575,-0.0405,-1.4321,1.5695,-8.5747,0.0000,0.0000,0.0000,0.0673,-0.1420,0.0915,-0.0013,-0.0321,-0.0090,0.0223,0.0764,-0.1046,0.0005,-0.0003,0.0002,0.0000,4151747279,1749740678115958843,0.0223,0.0764,-0.1046,0.9990,0.0007,-0.0010,0.0457,0.0000,0.0000,0.0000,0.00000000,0.00000000,0.000,0.000,0.000,0.000,0.000,0,0,0.000,0.000,0.000,0.000,0.000,0,0,0,0,0,0,0,0.0000,0.0000,-0.0500,0.0000,0.0000,0.0400,-0.0997,0.1943,0.0000,0.0000,0.0000,0.0000,0.0000,0.0000,0.0000,0.0000,0.0000,0.0000,0.0000,0.0000,0.0000,0.0000,0.0000,0.0000,0.0000,0.0000,0.0000,0.0000,0.0000,0.0000,0.0000,0.0400,0.0000,0.0000,-0.0500,0.2361,0.2361,0.1748,0.1748,1,5,1749740678121186858,1749740678116379357,1749740678121341499,1749740678121329168,1749740678121352664,1749740678121354414,1749740678121684485,1749740678121690442,1749740678121725728,1749740678116377441,0
36,1749740678126215489,1749740678125656248,1749740678125656248,1749740678126220239,16.3263,560.8231,33.8000,-0.0629,0.0160,0.0756,0.2898,3.4812,-9.4192,0.0000,0.0000,0.0000,0.0668,-0.1419,0.0916,-0.0218,-0.0161,0.0192,0.0224,0.0764,-0.1046,0.0005,-0.0005,0.0001,0.0000,4151755533,1749740678125739943,0.0224,0.0764,-0.1046,0.9990,0.0007,-0.0009,0.0458,0.0000,0.0000,0.0000,0.00000000,0.00000000,0.000,0.000,0.000,0.000,0.000,0,0,0.000,0.000,0.000,0.000,0.000,0,0,0,0,0,0,0,0.0000,0.0000,-0.0500,0.0000,0.0000,0.0400,-0.0997,0.1943,0.0000,0.0000,0.0000,0.0000,0.0000,0.0000,0.0000,0.0000,0.0000,0.0000,0.0000,0.0000,0.0000,0.0000,0.0000,0.0000,0.0000,0.0000,0.0000,0.0000,0.0000,0.0000,0.0000,0.0400,0.0000,0.0000,-0.0500,0.2361,0.2361,0.1748,0.1748,1,5,1749740678125660039,1749740678122548717,1749740678125763355,1749740678125747775,1749740678125774812,1749740678125776561,1749740678126175663,1749740678126182995,1749740678126216697,1749740678121742725,0
37,1749740678131514701,1749740678130952127,1749740678130952127,1749740678131519450,16.3316,560.8231,33.8000,0.1641,0.0266,-0.0000,2.2033,-1.8016,-11.7764,0.0000,0.0000,0.0000,0.0672,-0.1416,0.0916,0.0401,-0.0018,0.0128,0.0224,0.0764,-0.1046,0.0005,-0.0005,0.0001,0.0000,4151755533,1749740678125739943,0.0224,0.0764,-0.1046,0.9990,0.0007,-0.0009,0.0458,0.0000,0.0000,0.0000,0.00000000,0.00000000,0.000,0.000,0.000,0.000,0.000,0,0,0.000,0.000,0.000,0.000,0.000,0,0,0,0,0,0,0,0.0000,0.0000,-0.0500,0.0000,0.0000,0.0400,-0.0997,0.1943,0.0000,0.0000,0.0000,0.0000,0.0000,0.0000,0.0000,0.0000,0.0000,0.0000,0.0000,0.0000,0.0000,0.0000,0.0000,0.0000,0.0000,0.0000,0.0000,0.0000,0.0000,0.0000,0.0000,0.0400,0.0000,0.0000,-0.0500,0.2361,0.2361,0.1748,0.1748,1,5,1749740678130956543,1749740678126236736,1749740678131141221,1749740678131128556,1749740678131152719,1749740678131154510,1749740678131475208,1749740678131481165,1749740678131515951,1749740678126234819,0
38,1749740678136711930,1749740678136242840,1749740678136242840,1749740678136716804,16.3360,560.8231,33.8000,0.0618,-0.0682,-0.1150,-1.3268,-2.4668,-9.9394,0.0000,0.0000,0.0000,0.0677,-0.1415,0.0921,0.0474,-0.0239,-0.0298,0.0223,0.0764,-0.1046,0.0003,-0.0004,-0.0002,0.0000,4151764054,1749740678136310746,0.0223,0.0764,-0.1046,0.9989,0.0006,-0.0009,0.0460,0.0000,0.0000,0.0000,0.00000000,0.00000000,0.000,0.000,0.000,0.000,0.000,0,0,0.000,0.000,0.000,0.000,0.000,0,0,0,0,0,0,0,0.0000,0.0000,-0.0500,0.0000,0.0000,0.0400,-0.0997,0.1943,0.0000,0.0000,0.0000,0.0000,0.0000,0.0000,0.0000,0.0000,0.0000,0.0000,0.0000,0.0000,0.0000,0.0000,0.0000,0.0000,0.0000,0.0000,0.0000,0.0000,0.0000,0.0000,0.0000,0.0400,0.0000,0.0000,-0.0500,0.2361,0.2361,0.1748,0.1748,1,5,1749740678136247506,1749740678131535864,1749740678136336491,1749740678136318619,1749740678136348239,1749740678136349947,1749740678136672644,1749740678136679060,1749740678136713138,1749740678131533615,0
39,1749740678140930902,1749740678140255097,1749740678140255097,1749740678140935902,16.3379,560.8231,33.8000,-0.1992,-0.0309,0.0160,-2.8787,3.0482,-8.6176,0.0000,0.0000,0.0000,0.0669,-0.1417,0.0922,-0.0348,-0.0263,-0.0145,0.0224,0.0764,-0.1047,0.0011,0.0002,-0.0010,0.0000,4151772439,1749740678140444524,0.0224,0.0764,-0.1047,0.9989,0.0008,-0.0009,0.0461,0.0000,0.0000,0.0000,0.00000000,0.00000000,0.000,0.000,0.000,0.000,0.000,0,0,0.000,0.000,0.000,0.000,0.000,0,0,0,0,0,0,0,0.0000,0.0000,-0.0500,0.0000,0.0000,0.0400,-0.0997,0.1943,0.0000,0.0000,0.0000,0.0000,0.0000,0.0000,0.0000,0.0000,0.0000,0.0000,0.0000,0.0000,0.0000,0.0000,0.0000,0.0000,0.0000,0.0000,0.0000,0.0000,0.0000,0.0000,0.0000,0.0400,0.0000,0.0000,-0.0500,0.2361,0.2361,0.1748,0.1748,1,5,1749740678140259554,1749740678136731676,1749740678140470145,1749740678140452523,1749740678140481685,1749740678140483434,1749740678140890159,1749740678140896658,1749740678140932069,1749740678136729718,0
40,1749740678146211825,1749740678145505233,1749740678145505233,1749740678146216825,16.3411,560.8231,33.8000,0.0362,0.0756,0.1246,2.3398,0.9881,-7.7778,0.0000,0.0000,0.0000,0.0666,-0.1415,0.0925,-0.0111,0.0077,0.0318,0.0223,0.0764,-0.1047,0.0004,-0.0003,-0.0014,0.0000,4151781285,1749740678145695577,0.0223,0.0764,-0.1047,0.9989,0.0006,-0.0009,0.0463,0.0000,0.0000,0.0000,0.00000000,0.00000000,0.000,0.000,0.000,0.000,0.000,0,0,0.000,0.000,0.000,0.000,0.000,0,0,0,0,0,0,0,0.0000,0.0000,-0.0500,0.0000,0.0000,0.0400,-0.0997,0.1943,0.0000,0.0000,0.0000,0.0000,0.0000,0.0000,0.0000,0.0000,0.0000,0.0000,0.0000,0.0000,0.0000,0.0000,0.0000,0.0000,0.0000,0.0000,0.0000,0.0000,0.0000,0.0000,0.0000,0.0400,0.0000,0.0000,-0.0500,0.2361,0.2361,0.1748,0.1748,1,5,1749740678145510108,1749740678140950816,1749740678145721156,1749740678145703492,1749740678145732821,1749740678145734612,1749740678146053768,1749740678146060184,1749740678146213284,1749740678140948733,0
41,1749740678151375560,1749740678150783657,1749740678150783657,1749740678151380267,16.3432,560.8231,33.8000,0.2194,-0.0533,-0.0916,0.2778,-5.6058,-9.3524,0.0000,0.0000,0.0000,0.0676,-0.1414,0.0922,0.0657,-0.0126,-0.0093,0.0223,0.0764,-0.1048,0.0005,0.0002,-0.0017,0.0000,4151789179,1749740678150974126,0.0223,0.0764,-0.1048,0.9989,0.0007,-0.0008,0.0461,0.0000,0.0000,0.0000,0.00000000,0.00000000,0.000,0.000,0.000,0.000,0.000,0,0,0.000,0.000,0.000,0.000,0.000,0,0,0,0,0,0,0,0.0000,0.0000,-0.0500,0.0000,0.0000,0.0400,-0.0997,0.1943,0.0000,0.0000,0.0000,0.0000,0.0000,0.0000,0.0000,0.0000,0.0000,0.0000,0.0000,0.0000,0.0000,0.0000,0.0000,0.0000,0.0000,0.0000,0.0000,0.0000,0.0000,0.0000,0.0000,0.0400,0.0000,0.0000,-0.0500,0.2361,0.2361,0.1748,0.1748,1,5,1749740678150788073,1749740678146232572,1749740678150999413,1749740678150982083,1749740678151010869,1749740678151012619,1749740678151335649,1749740678151341648,1749740678151376768,1749740678146230697,0
42,1749740678156787961,1749740678155424519,1749740678155424519,1749740678156792377,16.3449,560.8231,33.8000,-0.1119,-0.0575,-0.0937,-4.2294,1.0934,-9.8105,0.0000,0.0000,0.0000,0.0676,-0.1415,0.0920,0.0065,-0.0276,-0.0375,0.0223,0.0764,-0.1047,0.0002,-0.0002,-0.0012,0.0000,4151797171,1749740678156430770,0.0223,0.0764,-0.1047,0.9989,0.0006,-0.0009,0.0460,0.0000,0.0000,0.0000,0.00000000,0.00000000,0.000,0.000,0.000,0.000,0.000,0,0,0.000,0.000,0.000,0.000,0.000,0,0,0,0,0,0,0,0.0000,0.0000,-0.0500,0.0000,0.0000,0.0400,-0.0997,0.1943,0.0000,0.0000,0.0000,0.0000,0.0000,0.0000,0.0000,0.0000,0.0000,0.0000,0.0000,0.0000,0.0000,0.0000,0.0000,0.0000,0.0000,0.0000,0.0000,0.0000,0.0000,0.0000,0.0000,0.0400,0.0000,0.0000,-0.0500,0.2361,0.2361,0.1748,0.1748,1,5,1749740678155428018,1749740678151396639,1749740678156452266,1749740678156438810,1749740678156462181,1749740678156463723,1749740678156754342,1749740678156760299,1749740678156789169,1749740678151394681,0
43,1749740678161304676,1749740678160868915,1749740678160868915,1749740678161309676,16.3471,560.8231,33.8000,-0.1598,-0.0011,0.2173,1.1639,5.0460,-6.7137,0.0000,0.0000,0.0000,0.0665,-0.1418,0.0920,-0.0489,-0.0187,0.0475,0.0223,0.0764,-0.1047,0.0002,-0.0002,-0.0012,0.0000,4151797171,1749740678156430770,0.0223,0.0764,-0.1047,0.9989,0.0006,-0.0009,0.0460,0.0000,0.0000,0.0000,0.00000000,0.00000000,0.000,0.000,0.000,0.000,0.000,0,0,0.000,0.000,0.000,0.000,0.000,0,0,0,0,0,0,0,0.0000,0.0000,-0.0500,0.0000,0.0000,0.0400,-0.0997,0.1943,0.0000,0.0000,0.0000,0.0000,0.0000,0.0000,0.0000,0.0000,0.0000,0.0000,0.0000,0.0000,0.0000,0.0000,0.0000,0.0000,0.0000,0.0000,0.0000,0.0000,0.0000,0.0000,0.0000,0.0400,0.0000,0.0000,-0.0500,0.2361,0.2361,0.1748,0.1748,1,5,1749740678160873789,1749740678156805666,1749740678160926197,1749740678160913324,1749740678160937362,1749740678160939112,1749740678161264808,1749740678161271140,1749740678161305926,1749740678156803917,0
44,1749740678166430500,1749740678165793355,1749740678165793355,1749740678166435499,16.3471,560.8231,33.8000,0.2173,-0.0149,0.0149,3.1397,-1.4523,-7.2076,0.0000,0.0000,0.0000,0.0671,-0.1417,0.0918,0.0398,-0.0175,0.0366,0.0223,0.0764,-0.1047,0.0004,-0.0002,-0.0012,0.0000,4151805730,1749740678165982949,0.0223,0.0764,-0.1047,0.9989,0.0005,-0.0009,0.0459,0.0000,0.0000,0.0000,0.00000000,0.00000000,0.000,0.000,0.000,0.000,0.000,0,0,0.000,0.000,0.000,0.000,0.000,0,0,0,0,0,0,0,0.0000,0.0000,-0.0500,0.0000,0.0000,0.0400,-0.0997,0.1943,0.0000,0.0000,0.0000,0.0000,0.0000,0.0000,0.0000,0.0000,0.0000,0.0000,0.0000,0.0000,0.0000,0.0000,0.0000,0.0000,0.0000,0.0000,0.0000,0.0000,0.0000,0.0000,0.0000,0.0400,0.0000,0.0000,-0.0500,0.2361,0.2361,0.1748,0.1748,1,5,1749740678165797937,1749740678161324340,1749740678166008111,1749740678165990864,1749740678166019609,1749740678166021734,1749740678166390465,1749740678166397214,1749740678166431708,1749740678161322549,0
45,1749740678171368480,1749740678170933426,1749740678170933426,1749740678171373479,16.3498,560.8231,33.8000,0.0863,-0.0266,-0.2045,-4.0354,-2.5457,-10.4571,0.0000,0.0000,0.0000,0.0678,-0.1414,0.0918,0.0553,-0.0205,-0.0438,0.0223,0.0764,-0.1047,0.0004,-0.0002,-0.0012,0.0000,4151805730,1749740678165982949,0.0223,0.0764,-0.1047,0.9989,0.0005,-0.0009,0.0459,0.0000,0.0000,0.0000,0.00000000,0.00000000,0.000,0.000,0.000,0.000,0.000,0,0,0.000,0.000,0.000,0.000,0.000,0,0,0,0,0,0,0,0.0000,0.0000,-0.0500,0.0000,0.0000,0.0400,-0.0997,0.1943,0.0000,0.0000,0.0000,0.0000,0.0000,0.0000,0.0000,0.0000,0.0000,0.0000,0.0000,0.0000,0.0000,0.0000,0.0000,0.0000,0.0000,0.0000,0.0000,0.0000,0.0000,0.0000,0.0000,0.0400,0.0000,0.0000,-0.0500,0.2361,0.2361,0.1748,0.1748,1,5,1749740678170938134,1749740678166450413,1749740678170988292,1749740678170975711,1749740678171000040,1749740678171001832,1749740678171328195,1749740678171334568,1749740678171369646,1749740678166448539,0
46,1749740678176805210,1749740678176217390,1749740678176217390,1749740678176809918,16.3510,560.8231,33.8000,-0.2269,-0.0107,0.1555,-1.1998,5.0986,-9.4407,0.0000,0.0000,0.0000,0.0667,-0.1417,0.0918,-0.0388,-0.0172,0.0227,0.0223,0.0763,-0.1047,0.0003,-0.0004,-0.0008,0.0000,4151814763,1749740678176408151,0.0223,0.0763,-0.1047,0.9989,0.0006,-0.0010,0.0459,0.0000,0.0000,0.0000,0.00000000,0.00000000,0.000,0.000,0.000,0.000,0.000,0,0,0.000,0.000,0.000,0.000,0.000,0,0,0,0,0,0,0,0.0000,0.0000,-0.0500,0.0000,0.0000,0.0400,-0.0997,0.1943,0.0000,0.0000,0.0000,0.0000,0.0000,0.0000,0.0000,0.0000,0.0000,0.0000,0.0000,0.0000,0.0000,0.0000,0.0000,0.0000,0.0000,0.0000,0.0000,0.0000,0.0000,0.0000,0.0000,0.0400,0.0000,0.0000,-0.0500,0.2361,0.2361,0.1748,0.1748,1,5,1749740678176221890,1749740678172179763,1749740678176433605,1749740678176415983,1749740678176444895,1749740678176446686,1749740678176766050,1749740678176772008,1749740678176806419,1749740678171387060,0
47,1749740678181205778,1749740678180570091,1749740678180570091,1749740678181210444,16.3548,560.8231,33.8000,0.0937,-0.0650,0.1672,4.9598,1.2848,-6.4537,0.0000,0.0000,0.0000,0.0665,-0.1421,0.0919,0.0054,-0.0331,0.0709,0.0223,0.0764,-0.1047,0.0005,0.0002,-0.0014,0.0000,4151822721,1749740678180805594,0.0223,0.0764,-0.1047,0.9989,0.0005,-0.0010,0.0459,0.0000,0.0000,0.0000,0.00000000,0.00000000,0.000,0.000,0.000,0.000,0.000,0,0,0.000,0.000,0.000,0.000,0.000,0,0,0,0,0,0,0,0.0000,0.0000,-0.0500,0.0000,0.0000,0.0400,-0.0997,0.1943,0.0000,0.0000,0.0000,0.0000,0.0000,0.0000,0.0000,0.0000,0.0000,0.0000,0.0000,0.0000,0.0000,0.0000,0.0000,0.0000,0.0000,0.0000,0.0000,0.0000,0.0000,0.0000,0.0000,0.0400,0.0000,0.0000,-0.0500,0.2361,0.2361,0.1748,0.1748,1,5,1749740678180573882,1749740678176824541,1749740678180828840,1749740678180814009,1749740678180840630,1749740678180842463,1749740678181165910,1749740678181171951,1749740678181206945,1749740678176822583,0
48,1749740678186709998,1749740678186275861,1749740678186275861,1749740678186714706,16.3565,560.8231,33.8000,0.1981,-0.0234,-0.2621,-2.5530,-4.4765,-12.3490,0.0000,0.0000,0.0000,0.0675,-0.1416,0.0919,0.0697,-0.0299,-0.0401,0.0223,0.0764,-0.1047,0.0005,0.0002,-0.0014,0.0000,4151822721,1749740678180805594,0.0223,0.0764,-0.1047,0.9989,0.0005,-0.0010,0.0459,0.0000,0.0000,0.0000,0.00000000,0.00000000,0.000,0.000,0.000,0.000,0.000,0,0,0.000,0.000,0.000,0.000,0.000,0,0,0,0,0,0,0,0.0000,0.0000,-0.0500,0.0000,0.0000,0.0400,-0.0997,0.1943,0.0000,0.0000,0.0000,0.0000,0.0000,0.0000,0.0000,0.0000,0.0000,0.0000,0.0000,0.0000,0.0000,0.0000,0.0000,0.0000,0.0000,0.0000,0.0000,0.0000,0.0000,0.0000,0.0000,0.0400,0.0000,0.0000,-0.0500,0.2361,0.2361,0.1748,0.1748,1,5,1749740678186280360,1749740678181225567,1749740678186334768,1749740678186322145,1749740678186346266,1749740678186348016,1749740678186670463,1749740678186676504,1749740678186711164,1749740678181223609,0
49,1749740678190887436,1749740678190453299,1749740678190453299,1749740678190892143,16.3587,560.8231,33.8000,-0.1843,0.0064,-0.0085,-4.0546,2.9261,-13.1960,0.0000,0.0000,0.0000,0.0670,-0.1416,0.0919,-0.0150,-0.0178,-0.0296,0.0223,0.0764,-0.1047,0.0005,0.0002,-0.0014,0.0000,4151822721,1749740678180805594,0.0223,0.0764,-0.1047,0.9989,0.0005,-0.0010,0.0459,0.0000,0.0000,0.0000,0.00000000,0.00000000,0.000,0.000,0.000,0.000,0.000,0,0,0.000,0.000,0.000,0.000,0.000,0,0,0,0,0,0,0,0.0000,0.0000,-0.0500,0.0000,0.0000,0.0400,-0.0997,0.1943,0.0000,0.0000,0.0000,0.0000,0.0000,0.0000,0.0000,0.0000,0.0000,0.0000,0.0000,0.0000,0.0000,0.0000,0.0000,0.0000,0.0000,0.0000,0.0000,0.0000,0.0000,0.0000,0.0000,0.0400,0.0000,0.0000,-0.0500,0.2361,0.2361,0.1748,0.1748,1,5,1749740678190457798,1749740678186729870,1749740678190512623,1749740678190499666,1749740678190523746,1749740678190525495,1749740678190847942,1749740678190854025,1749740678190888644,1749740678186727912,0
50,1749740678195965892,1749740678195529797,1749740678195529797,1749740678195970558,16.3611,560.8231,33.8000,0.0053,-0.0330,0.2716,4.8185,2.7204,-9.4884,0.0000,0.0000,0.0000,0.0665,-0.1421,0.0919,-0.0082,-0.0229,0.0708,0.0223,0.0764,-0.1047,0.0005,0.0002,-0.0014,0.0000,4151822721,1749740678180805594,0.0223,0.0764,-0.1047,0.9989,0.0005,-0.0010,0.0459,0.0000,0.0000,0.0000,0.00000000,0.00000000,0.000,0.000,0.000,0.000,0.000,0,0,0.000,0.000,0.000,0.000,0.000,0,0,0,0,0,0,0,0.0000,0.0000,-0.0500,0.0000,0.0000,0.0400,-0.0997,0.1943,0.0000,0.0000,0.0000,0.0000,0.0000,0.0000,0.0000,0.0000,0.0000,0.0000,0.0000,0.0000,0.0000,0.0000,0.0000,0.0000,0.0000,0.0000,0.0000,0.0000,0.0000,0.0000,0.0000,0.0400,0.0000,0.0000,-0.0500,0.2361,0.2361,0.1748,0.1748,1,5,1749740678195534672,1749740678190906933,1749740678195588996,1749740678195575956,1749740678195600744,1749740678195602535,1749740678195925274,1749740678195931815,1749740678195967100,1749740678190905016,0
51,1749740678201032101,1749740678200452988,1749740678200452988,1749740678201036642,16.3628,560.8231,33.8000,0.2429,-0.0586,-0.1736,0.0599,-7.0868,-11.4233,0.0000,0.0000,0.0000,0.0675,-0.1417,0.0919,0.0755,-0.0348,-0.0107,0.0224,0.0763,-0.1047,0.0005,0.0001,-0.0012,0.0000,4151831489,1749740678200635208,0.0224,0.0763,-0.1047,0.9989,0.0006,-0.0010,0.0459,0.0000,0.0000,0.0000,0.00000000,0.00000000,0.000,0.000,0.000,0.000,0.000,0,0,0.000,0.000,0.000,0.000,0.000,0,0,0,0,0,0,0,0.0000,0.0000,-0.0500,0.0000,0.0000,0.0400,-0.0997,0.1943,0.0000,0.0000,0.0000,0.0000,0.0000,0.0000,0.0000,0.0000,0.0000,0.0000,0.0000,0.0000,0.0000,0.0000,0.0000,0.0000,0.0000,0.0000,0.0000,0.0000,0.0000,0.0000,0.0000,0.0400,0.0000,0.0000,-0.0500,0.2361,0.2361,0.1748,0.1748,1,5,1749740678200457445,1749740678195986056,1749740678200661245,1749740678200643790,1749740678200672868,1749740678200674618,1749740678200992649,1749740678200998606,1749740678201033351,1749740678195984098,0
52,1749740678205961165,1749740678205490576,1749740678205490576,1749740678205966414,16.3643,560.8231,33.8000,-0.1225,0.0501,-0.1619,-5.9872,1.8901,-14.0048,0.0000,0.0000,0.0000,0.0676,-0.1412,0.0919,0.0095,-0.0065,-0.0611,0.0224,0.0763,-0.1047,0.0005,0.0001,-0.0012,0.0000,4151831489,1749740678200635208,0.0224,0.0763,-0.1047,0.9989,0.0006,-0.0010,0.0459,0.0000,0.0000,0.0000,0.00000000,0.00000000,0.000,0.000,0.000,0.000,0.000,0,0,0.000,0.000,0.000,0.000,0.000,0,0,0,0,0,0,0,0.0000,0.0000,-0.0500,0.0000,0.0000,0.0400,-0.0997,0.1943,0.0000,0.0000,0.0000,0.0000,0.0000,0.0000,0.0000,0.0000,0.0000,0.0000,0.0000,0.0000,0.0000,0.0000,0.0000,0.0000,0.0000,0.0000,0.0000,0.0000,0.0000,0.0000,0.0000,0.0400,0.0000,0.0000,-0.0500,0.2361,0.2361,0.1748,0.1748,1,5,1749740678205495283,1749740678201051306,1749740678205587560,1749740678205574854,1749740678205598725,1749740678205600558,1749740678205921922,1749740678205927837,1749740678205962373,1749740678201049348,0
53,1749740678211338072,1749740678210780247,1749740678210780247,1749740678211342780,16.3655,560.8231,33.8000,-0.0511,-0.0128,0.2653,2.8739,3.3329,-9.5433,0.0000,0.0000,0.0000,0.0669,-0.1418,0.0920,-0.0107,-0.0086,0.0477,0.0223,0.0764,-0.1048,0.0004,0.0004,-0.0018,0.0000,4151838449,1749740678210939763,0.0223,0.0764,-0.1048,0.9989,0.0006,-0.0009,0.0460,0.0000,0.0000,0.0000,0.00000000,0.00000000,0.000,0.000,0.000,0.000,0.000,0,0,0.000,0.000,0.000,0.000,0.000,0,0,0,0,0,0,0,0.0000,0.0000,-0.0500,0.0000,0.0000,0.0400,-0.0997,0.1943,0.0000,0.0000,0.0000,0.0000,0.0000,0.0000,0.0000,0.0000,0.0000,0.0000,0.0000,0.0000,0.0000,0.0000,0.0000,0.0000,0.0000,0.0000,0.0000,0.0000,0.0000,0.0000,0.0000,0.0400,0.0000,0.0000,-0.0500,0.2361,0.2361,0.1748,0.1748,1,5,1749740678210784663,1749740678205982412,1749740678210965175,1749740678210947637,1749740678210977048,1749740678210978756,1749740678211298746,1749740678211304870,1749740678211339239,1749740678205980162,0
54,1749740678216928153,1749740678216340875,1749740678216340875,1749740678216932861,16.3657,560.8231,33.8000,0.2035,-0.1012,-0.0437,1.4777,-4.0913,-8.9469,0.0000,0.0000,0.0000,0.0676,-0.1418,0.0919,0.0607,-0.0395,0.0172,0.0224,0.0764,-0.1048,0.0007,-0.0002,-0.0011,0.0000,4151847136,1749740678216530093,0.0224,0.0764,-0.1048,0.9989,0.0007,-0.0010,0.0459,0.0000,0.0000,0.0000,0.00000000,0.00000000,0.000,0.000,0.000,0.000,0.000,0,0,0.000,0.000,0.000,0.000,0.000,0,0,0,0,0,0,0,0.0000,0.0000,-0.0500,0.0000,0.0000,0.0400,-0.0997,0.1943,0.0000,0.0000,0.0000,0.0000,0.0000,0.0000,0.0000,0.0000,0.0000,0.0000,0.0000,0.0000,0.0000,0.0000,0.0000,0.0000,0.0000,0.0000,0.0000,0.0000,0.0000,0.0000,0.0000,0.0400,0.0000,0.0000,-0.0500,0.2361,0.2361,0.1748,0.1748,1,5,1749740678216345290,1749740678211358652,1749740678216555548,1749740678216538009,1749740678216567004,1749740678216568712,1749740678216888618,1749740678216894658,1749740678216929361,1749740678211356736,0
55,1749740678221441744,1749740678220910915,1749740678220910915,1749740678221446493,16.3664,560.8231,33.8000,-0.0767,0.0234,-0.2248,-6.0423,1.1628,-14.0215,0.0000,0.0000,0.0000,0.0677,-0.1414,0.0919,0.0149,-0.0185,-0.0634,0.0224,0.0764,-0.1048,0.0007,-0.0002,-0.0011,0.0000,4151847136,1749740678216530093,0.0224,0.0764,-0.1048,0.9989,0.0007,-0.0010,0.0459,0.0000,0.0000,0.0000,0.00000000,0.00000000,0.000,0.000,0.000,0.000,0.000,0,0,0.000,0.000,0.000,0.000,0.000,0,0,0,0,0,0,0,0.0000,0.0000,-0.0500,0.0000,0.0000,0.0400,-0.0997,0.1943,0.0000,0.0000,0.0000,0.0000,0.0000,0.0000,0.0000,0.0000,0.0000,0.0000,0.0000,0.0000,0.0000,0.0000,0.0000,0.0000,0.0000,0.0000,0.0000,0.0000,0.0000,0.0000,0.0000,0.0400,0.0000,0.0000,-0.0500,0.2361,0.2361,0.1748,0.1748,1,5,1749740678220915414,1749740678216947983,1749740678221066889,1749740678221053599,1749740678221078095,1749740678221079845,1749740678221402209,1749740678221408208,1749740678221442952,1749740678216946025,0
56,1749740678226362060,1749740678225786863,1749740678225786863,1749740678226367226,16.3674,560.8522,33.8000,-0.0735,0.0426,0.2056,1.9614,4.2899,-10.0992,0.0000,0.0000,0.0000,0.0670,-0.1416,0.0920,-0.0146,0.0019,0.0262,0.0223,0.0764,-0.1048,0.0003,0.0002,-0.0015,0.0000,4151855054,1749740678225887596,0.0223,0.0764,-0.1048,0.9989,0.0006,-0.0009,0.0460,0.0000,0.0000,0.0000,0.00000000,0.00000000,0.000,0.000,0.000,0.000,0.000,0,0,0.000,0.000,0.000,0.000,0.000,0,0,0,0,0,0,0,0.0000,0.0000,-0.0500,0.0000,0.0000,0.0400,-0.0997,0.1943,0.0000,0.0000,0.0000,0.0000,0.0000,0.0000,0.0000,0.0000,0.0000,0.0000,0.0000,0.0000,0.0000,0.0000,0.0000,0.0000,0.0000,0.0000,0.0000,0.0000,0.0000,0.0000,0.0000,0.0400,0.0000,0.0000,-0.0500,0.2361,0.2361,0.1748,0.1748,1,5,1749740678225791654,1749740678222228573,1749740678225912967,1749740678225895553,1749740678225924298,1749740678225926006,1749740678226322483,1749740678226328940,1749740678226363226,1749740678221459324,0
57,1749740678231047664,1749740678230485506,1749740678230485506,1749740678231052372,16.3693,560.8522,33.8000,0.1566,-0.1001,0.0629,2.0740,-5.0723,-8.6701,0.0000,0.0000,0.0000,0.0672,-0.1418,0.0920,0.0425,-0.0321,0.0384,0.0223,0.0764,-0.1048,0.0003,0.0002,-0.0015,0.0000,4151855054,1749740678225887596,0.0223,0.0764,-0.1048,0.9989,0.0006,-0.0009,0.0460,0.0000,0.0000,0.0000,0.00000000,0.00000000,0.000,0.000,0.000,0.000,0.000,0,0,0.000,0.000,0.000,0.000,0.000,0,0,0,0,0,0,0,0.0000,0.0000,-0.0500,0.0000,0.0000,0.0400,-0.0997,0.1943,0.0000,0.0000,0.0000,0.0000,0.0000,0.0000,0.0000,0.0000,0.0000,0.0000,0.0000,0.0000,0.0000,0.0000,0.0000,0.0000,0.0000,0.0000,0.0000,0.0000,0.0000,0.0000,0.0000,0.0400,0.0000,0.0000,-0.0500,0.2361,0.2361,0.1748,0.1748,1,5,1749740678230490006,1749740678226383348,1749740678230670893,1749740678230658395,1749740678230682641,1749740678230684474,1749740678231007712,1749740678231013961,1749740678231048872,1749740678226381098,0
58,1749740678236629329,1749740678236160406,1749740678236160406,1749740678236633995,16.3696,560.8522,33.8000,-0.0490,-0.0149,-0.2109,-5.3454,-0.1699,-10.3617,0.0000,0.0000,0.0000,0.0676,-0.1415,0.0918,0.0120,-0.0264,-0.0447,0.0223,0.0764,-0.1048,0.0000,0.0001,-0.0010,0.0000,4151863744,1749740678236232228,0.0223,0.0764,-0.1048,0.9989,0.0007,-0.0009,0.0459,0.0000,0.0000,0.0000,0.00000000,0.00000000,0.000,0.000,0.000,0.000,0.000,0,0,0.000,0.000,0.000,0.000,0.000,0,0,0,0,0,0,0,0.0000,0.0000,-0.0500,0.0000,0.0000,0.0400,-0.0997,0.1943,0.0000,0.0000,0.0000,0.0000,0.0000,0.0000,0.0000,0.0000,0.0000,0.0000,0.0000,0.0000,0.0000,0.0000,0.0000,0.0000,0.0000,0.0000,0.0000,0.0000,0.0000,0.0000,0.0000,0.0400,0.0000,0.0000,-0.0500,0.2361,0.2361,0.1748,0.1748,1,5,1749740678236164822,1749740678231068827,1749740678236257932,1749740678236240060,1749740678236269264,1749740678236271013,1749740678236589878,1749740678236596293,1749740678236630537,1749740678231066869,0
59,1749740678241053602,1749740678240386336,1749740678240386336,1749740678241058268,16.3718,560.8522,33.8000,-0.0607,0.0767,0.1545,0.0934,5.7087,-9.1687,0.0000,0.0000,0.0000,0.0671,-0.1415,0.0918,-0.0122,0.0080,0.0217,0.0223,0.0764,-0.1048,0.0006,0.0001,-0.0010,0.0000,4151872426,1749740678240655542,0.0223,0.0764,-0.1048,0.9989,0.0007,-0.0008,0.0459,0.0000,0.0000,0.0000,0.00000000,0.00000000,0.000,0.000,0.000,0.000,0.000,0,0,0.000,0.000,0.000,0.000,0.000,0,0,0,0,0,0,0,0.0000,0.0000,-0.0500,0.0000,0.0000,0.0400,-0.0997,0.1943,0.0000,0.0000,0.0000,0.0000,0.0000,0.0000,0.0000,0.0000,0.0000,0.0000,0.0000,0.0000,0.0000,0.0000,0.0000,0.0000,0.0000,0.0000,0.0000,0.0000,0.0000,0.0000,0.0000,0.0400,0.0000,0.0000,-0.0500,0.2361,0.2361,0.1748,0.1748,1,5,1749740678240390877,1749740678236649159,1749740678240681246,1749740678240663707,1749740678240692453,1749740678240694244,1749740678241014566,1749740678241020857,1749740678241054768,1749740678236647160,0
60,1749740678246317528,1749740678245571150,1749740678245571150,1749740678246322318,16.3744,560.8522,33.8000,0.1278,-0.0905,0.0852,2.5290,-3.5291,-6.7996,0.0000,0.0000,0.0000,0.0671,-0.1419,0.0916,0.0344,-0.0249,0.0429,0.0223,0.0764,-0.1047,-0.0002,0.0002,-0.0007,0.0000,4151881180,1749740678245797488,0.0223,0.0764,-0.1047,0.9990,0.0008,-0.0008,0.0458,0.0000,0.0000,0.0000,0.00000000,0.00000000,0.000,0.000,0.000,0.000,0.000,0,0,0.000,0.000,0.000,0.000,0.000,0,0,0,0,0,0,0,0.0000,0.0000,-0.0500,0.0000,0.0000,0.0400,-0.0997,0.1943,0.0000,0.0000,0.0000,0.0000,0.0000,0.0000,0.0000,0.0000,0.0000,0.0000,0.0000,0.0000,0.0000,0.0000,0.0000,0.0000,0.0000,0.0000,0.0000,0.0000,0.0000,0.0000,0.0000,0.0400,0.0000,0.0000,-0.0500,0.2361,0.2361,0.1748,0.1748,1,5,1749740678245575650,1749740678241073640,1749740678245823109,1749740678245805487,1749740678245834732,1749740678245836523,1749740678246277701,1749740678246284075,1749740678246318777,1749740678241071682,0
61,1749740678251120196,1749740678250530835,1749740678250530835,1749740678251124904,16.3754,560.8522,33.8000,-0.0820,-0.0256,-0.1896,-4.0210,-0.8015,-10.1231,0.0000,0.0000,0.0000,0.0671,-0.1416,0.0916,-0.0044,-0.0251,-0.0346,0.0223,0.0764,-0.1047,0.0005,0.0001,-0.0006,0.0000,4151889073,1749740678250721178,0.0223,0.0764,-0.1047,0.9990,0.0009,-0.0008,0.0458,0.0000,0.0000,0.0000,0.00000000,0.00000000,0.000,0.000,0.000,0.000,0.000,0,0,0.000,0.000,0.000,0.000,0.000,0,0,0,0,0,0,0,0.0000,0.0000,-0.0500,0.0000,0.0000,0.0400,-0.0997,0.1943,0.0000,0.0000,0.0000,0.0000,0.0000,0.0000,0.0000,0.0000,0.0000,0.0000,0.0000,0.0000,0.0000,0.0000,0.0000,0.0000,0.0000,0.0000,0.0000,0.0000,0.0000,0.0000,0.0000,0.0400,0.0000,0.0000,-0.0500,0.2361,0.2361,0.1748,0.1748,1,5,1749740678250535334,1749740678246338191,1749740678250746591,1749740678250729052,1749740678250758131,1749740678250759922,1749740678251080286,1749740678251086202,1749740678251121404,1749740678246336316,0
62,1749740678256590421,1749740678256155701,1749740678256155701,1749740678256595587,16.3761,560.8522,33.8000,-0.0660,0.0692,0.1150,-0.8358,5.8379,-9.0375,0.0000,0.0000,0.0000,0.0667,-0.1415,0.0916,-0.0249,0.0063,0.0153,0.0223,0.0764,-0.1047,0.0005,0.0001,-0.0006,0.0000,4151889073,1749740678250721178,0.0223,0.0764,-0.1047,0.9990,0.0009,-0.0008,0.0458,0.0000,0.0000,0.0000,0.00000000,0.00000000,0.000,0.000,0.000,0.000,0.000,0,0,0.000,0.000,0.000,0.000,0.000,0,0,0,0,0,0,0,0.0000,0.0000,-0.0500,0.0000,0.0000,0.0400,-0.0997,0.1943,0.0000,0.0000,0.0000,0.0000,0.0000,0.0000,0.0000,0.0000,0.0000,0.0000,0.0000,0.0000,0.0000,0.0000,0.0000,0.0000,0.0000,0.0000,0.0000,0.0000,0.0000,0.0000,0.0000,0.0400,0.0000,0.0000,-0.0500,0.2361,0.2361,0.1748,0.1748,1,5,1749740678256160659,1749740678251141359,1749740678256214733,1749740678256202110,1749740678256225898,1749740678256227689,1749740678256551136,1749740678256557052,1749740678256591629,1749740678251139443,0
63,1749740678260773442,1749740678260346928,1749740678260346928,1749740678260778108,16.3766,560.8522,33.8000,0.1470,-0.0852,0.1055,2.6799,-5.0412,-8.2597,0.0000,0.0000,0.0000,0.0668,-0.1419,0.0916,0.0324,-0.0242,0.0453,0.0223,0.0764,-0.1047,0.0005,0.0001,-0.0006,0.0000,4151889073,1749740678250721178,0.0223,0.0764,-0.1047,0.9990,0.0009,-0.0008,0.0458,0.0000,0.0000,0.0000,0.00000000,0.00000000,0.000,0.000,0.000,0.000,0.000,0,0,0.000,0.000,0.000,0.000,0.000,0,0,0,0,0,0,0,0.0000,0.0000,-0.0500,0.0000,0.0000,0.0400,-0.0997,0.1943,0.0000,0.0000,0.0000,0.0000,0.0000,0.0000,0.0000,0.0000,0.0000,0.0000,0.0000,0.0000,0.0000,0.0000,0.0000,0.0000,0.0000,0.0000,0.0000,0.0000,0.0000,0.0000,0.0000,0.0400,0.0000,0.0000,-0.0500,0.2361,0.2361,0.1748,0.1748,1,5,1749740678260351386,1749740678256611460,1749740678260399586,1749740678260386214,1749740678260411335,1749740678260413084,1749740678260734073,1749740678260740530,1749740678260774608,1749740678256609543,0
64,1749740678266598859,1749740678265905764,1749740678265905764,1749740678266603566,16.3783,560.8522,33.8000,-0.0405,-0.0245,-0.2088,-4.3659,-2.1366,-9.4336,0.0000,0.0000,0.0000,0.0672,-0.1416,0.0917,0.0081,-0.0243,-0.0394,0.0223,0.0764,-0.1047,0.0004,0.0001,-0.0005,0.0000,4151898125,1749740678266200257,0.0223,0.0764,-0.1047,0.9989,0.0007,-0.0009,0.0458,0.0000,0.0000,0.0000,0.00000000,0.00000000,0.000,0.000,0.000,0.000,0.000,0,0,0.000,0.000,0.000,0.000,0.000,0,0,0,0,0,0,0,0.0000,0.0000,-0.0500,0.0000,0.0000,0.0400,-0.0997,0.1943,0.0000,0.0000,0.0000,0.0000,0.0000,0.0000,0.0000,0.0000,0.0000,0.0000,0.0000,0.0000,0.0000,0.0000,0.0000,0.0000,0.0000,0.0000,0.0000,0.0000,0.0000,0.0000,0.0000,0.0400,0.0000,0.0000,-0.0500,0.2361,0.2361,0.1748,0.1748,1,5,1749740678265910555,1749740678260793397,1749740678266226170,1749740678266208298,1749740678266237668,1749740678266239334,1749740678266559073,1749740678266564947,1749740678266600067,1749740678260791480,0
65,1749740678271262633,1749740678270793210,1749740678270793210,1749740678271267341,16.3802,560.8522,33.8000,-0.1023,0.0810,0.1055,-1.5998,7.5893,-6.5873,0.0000,0.0000,0.0000,0.0667,-0.1415,0.0917,-0.0287,0.0108,0.0089,0.0223,0.0764,-0.1047,0.0004,0.0001,-0.0005,0.0000,4151898125,1749740678266200257,0.0223,0.0764,-0.1047,0.9989,0.0007,-0.0009,0.0458,0.0000,0.0000,0.0000,0.00000000,0.00000000,0.000,0.000,0.000,0.000,0.000,0,0,0.000,0.000,0.000,0.000,0.000,0,0,0,0,0,0,0,0.0000,0.0000,-0.0500,0.0000,0.0000,0.0400,-0.0997,0.1943,0.0000,0.0000,0.0000,0.0000,0.0000,0.0000,0.0000,0.0000,0.0000,0.0000,0.0000,0.0000,0.0000,0.0000,0.0000,0.0000,0.0000,0.0000,0.0000,0.0000,0.0000,0.0000,0.0000,0.0400,0.0000,0.0000,-0.0500,0.2361,0.2361,0.1748,0.1748,1,5,1749740678270797626,1749740678266618897,1749740678270888528,1749740678270875655,1749740678270899943,1749740678270901693,1749740678271223056,1749740678271229097,1749740678271263841,1749740678266616981,0
66,1749740678276195447,1749740678275632706,1749740678275632706,1749740678276200446,16.3817,560.8670,33.8000,0.1886,-0.0799,0.1193,3.5133,-3.1199,-5.4588,0.0000,0.0000,0.0000,0.0668,-0.1420,0.0915,0.0437,-0.0194,0.0457,0.0224,0.0764,-0.1047,0.0008,-0.0002,-0.0004,0.0000,4151905290,1749740678275792930,0.0224,0.0764,-0.1047,0.9990,0.0009,-0.0009,0.0457,0.0000,0.0000,0.0000,0.00000000,0.00000000,0.000,0.000,0.000,0.000,0.000,0,0,0.000,0.000,0.000,0.000,0.000,0,0,0,0,0,0,0,0.0000,0.0000,-0.0500,0.0000,0.0000,0.0400,-0.0997,0.1943,0.0000,0.0000,0.0000,0.0000,0.0000,0.0000,0.0000,0.0000,0.0000,0.0000,0.0000,0.0000,0.0000,0.0000,0.0000,0.0000,0.0000,0.0000,0.0000,0.0000,0.0000,0.0000,0.0000,0.0400,0.0000,0.0000,-0.0500,0.2361,0.2361,0.1748,0.1748,1,5,1749740678275637164,1749740678271824916,1749740678275818259,1749740678275800762,1749740678275829590,1749740678275831382,1749740678276155578,1749740678276161619,1749740678276196655,1749740678271281630,0
67,1749740678281189459,1749740678280686666,1749740678280686666,1749740678281194375,16.3805,560.8670,33.8000,-0.0575,-0.0724,-0.2045,-4.2773,-1.2394,-8.2669,0.0000,0.0000,0.0000,0.0670,-0.1419,0.0915,0.0100,-0.0371,-0.0377,0.0224,0.0764,-0.1047,0.0008,-0.0002,-0.0004,0.0000,4151905290,1749740678275792930,0.0224,0.0764,-0.1047,0.9990,0.0009,-0.0009,0.0457,0.0000,0.0000,0.0000,0.00000000,0.00000000,0.000,0.000,0.000,0.000,0.000,0,0,0.000,0.000,0.000,0.000,0.000,0,0,0,0,0,0,0,0.0000,0.0000,-0.0500,0.0000,0.0000,0.0400,-0.0997,0.1943,0.0000,0.0000,0.0000,0.0000,0.0000,0.0000,0.0000,0.0000,0.0000,0.0000,0.0000,0.0000,0.0000,0.0000,0.0000,0.0000,0.0000,0.0000,0.0000,0.0000,0.0000,0.0000,0.0000,0.0400,0.0000,0.0000,-0.0500,0.2361,0.2361,0.1748,0.1748,1,5,1749740678280691082,1749740678276215652,1749740678280812562,1749740678280800023,1749740678280823727,1749740678280825852,1749740678281150590,1749740678281156673,1749740678281190625,1749740678276213819,0
68,1749740678286375856,1749740678285841027,1749740678285841027,1749740678286380855,16.3819,560.8670,33.8000,-0.0980,0.0959,0.0575,-1.3555,7.0533,-7.6394,0.0000,0.0000,0.0000,0.0665,-0.1417,0.0918,-0.0260,0.0072,-0.0060,0.0223,0.0764,-0.1048,0.0005,0.0000,-0.0006,0.0000,4151914347,1749740678285972047,0.0223,0.0764,-0.1048,0.9989,0.0006,-0.0010,0.0459,0.0000,0.0000,0.0000,0.00000000,0.00000000,0.000,0.000,0.000,0.000,0.000,0,0,0.000,0.000,0.000,0.000,0.000,0,0,0,0,0,0,0,0.0000,0.0000,-0.0500,0.0000,0.0000,0.0400,-0.0997,0.1943,0.0000,0.0000,0.0000,0.0000,0.0000,0.0000,0.0000,0.0000,0.0000,0.0000,0.0000,0.0000,0.0000,0.0000,0.0000,0.0000,0.0000,0.0000,0.0000,0.0000,0.0000,0.0000,0.0000,0.0400,0.0000,0.0000,-0.0500,0.2361,0.2361,0.1748,0.1748,1,5,1749740678285845485,1749740678281208664,1749740678285997501,1749740678285979963,1749740678286009249,1749740678286010999,1749740678286335696,1749740678286342403,1749740678286377064,1749740678281206831,0
69,1749740678291139114,1749740678290452435,1749740678290452435,1749740678291144072,16.3817,560.8670,33.8000,0.1768,-0.0660,0.1715,3.7217,-3.3831,-6.3296,0.0000,0.0000,0.0000,0.0665,-0.1421,0.0915,0.0416,-0.0172,0.0532,0.0224,0.0763,-0.1047,0.0009,-0.0004,-0.0003,0.0000,4151922246,1749740678290738097,0.0224,0.0763,-0.1047,0.9990,0.0008,-0.0010,0.0458,0.0000,0.0000,0.0000,0.00000000,0.00000000,0.000,0.000,0.000,0.000,0.000,0,0,0.000,0.000,0.000,0.000,0.000,0,0,0,0,0,0,0,0.0000,0.0000,-0.0500,0.0000,0.0000,0.0400,-0.0997,0.1943,0.0000,0.0000,0.0000,0.0000,0.0000,0.0000,0.0000,0.0000,0.0000,0.0000,0.0000,0.0000,0.0000,0.0000,0.0000,0.0000,0.0000,0.0000,0.0000,0.0000,0.0000,0.0000,0.0000,0.0400,0.0000,0.0000,-0.0500,0.2361,0.2361,0.1748,0.1748,1,5,1749740678290456893,1749740678286395269,1749740678290761718,1749740678290746220,1749740678290773049,1749740678290774841,1749740678291099204,1749740678291105994,1749740678291140322,1749740678286393395,0
70,1749740678296390375,1749740678295826218,1749740678295826218,1749740678296395333,16.3812,560.8670,33.8000,-0.0277,-0.0863,-0.1832,-4.5982,-3.4286,-8.9659,0.0000,0.0000,0.0000,0.0668,-0.1421,0.0915,0.0185,-0.0402,-0.0256,0.0224,0.0763,-0.1047,0.0009,-0.0004,-0.0003,0.0000,4151922246,1749740678290738097,0.0224,0.0763,-0.1047,0.9990,0.0008,-0.0010,0.0458,0.0000,0.0000,0.0000,0.00000000,0.00000000,0.000,0.000,0.000,0.000,0.000,0,0,0.000,0.000,0.000,0.000,0.000,0,0,0,0,0,0,0,0.0000,0.0000,-0.0500,0.0000,0.0000,0.0400,-0.0997,0.1943,0.0000,0.0000,0.0000,0.0000,0.0000,0.0000,0.0000,0.0000,0.0000,0.0000,0.0000,0.0000,0.0000,0.0000,0.0000,0.0000,0.0000,0.0000,0.0000,0.0000,0.0000,0.0000,0.0000,0.0400,0.0000,0.0000,-0.0500,0.2361,0.2361,0.1748,0.1748,1,5,1749740678295831009,1749740678291158652,1749740678296011729,1749740678295998940,1749740678296022936,1749740678296024727,1749740678296350507,1749740678296356673,1749740678296391542,1749740678291156778,0
71,1749740678301023780,1749740678300553066,1749740678300553066,1749740678301028488,16.3831,560.8670,33.8000,-0.0895,0.0959,0.0266,-1.9782,7.1132,-7.1933,0.0000,0.0000,0.0000,0.0666,-0.1419,0.0918,-0.0175,0.0051,-0.0082,0.0224,0.0764,-0.1047,0.0010,-0.0004,-0.0003,0.0000,4151930679,1749740678300625054,0.0224,0.0764,-0.1047,0.9989,0.0006,-0.0011,0.0459,0.0000,0.0000,0.0000,0.00000000,0.00000000,0.000,0.000,0.000,0.000,0.000,0,0,0.000,0.000,0.000,0.000,0.000,0,0,0,0,0,0,0,0.0000,0.0000,-0.0500,0.0000,0.0000,0.0400,-0.0997,0.1943,0.0000,0.0000,0.0000,0.0000,0.0000,0.0000,0.0000,0.0000,0.0000,0.0000,0.0000,0.0000,0.0000,0.0000,0.0000,0.0000,0.0000,0.0000,0.0000,0.0000,0.0000,0.0000,0.0000,0.0400,0.0000,0.0000,-0.0500,0.2361,0.2361,0.1748,0.1748,1,5,1749740678300557940,1749740678296410289,1749740678300650841,1749740678300632928,1749740678300662173,1749740678300663922,1749740678300984120,1749740678300990285,1749740678301024988,1749740678296408456,0
72,1749740678305978257,1749740678305388270,1749740678305388270,1749740678305982964,16.3834,560.8670,33.8000,0.1534,-0.0522,0.1609,3.8917,-2.5146,-6.8545,0.0000,0.0000,0.0000,0.0666,-0.1423,0.0914,0.0395,-0.0140,0.0482,0.0224,0.0763,-0.1047,0.0010,-0.0008,-0.0000,0.0000,4151939004,1749740678305578073,0.0224,0.0763,-0.1047,0.9990,0.0008,-0.0011,0.0457,0.0000,0.0000,0.0000,0.00000000,0.00000000,0.000,0.000,0.000,0.000,0.000,0,0,0.000,0.000,0.000,0.000,0.000,0,0,0,0,0,0,0,0.0000,0.0000,-0.0500,0.0000,0.0000,0.0400,-0.0997,0.1943,0.0000,0.0000,0.0000,0.0000,0.0000,0.0000,0.0000,0.0000,0.0000,0.0000,0.0000,0.0000,0.0000,0.0000,0.0000,0.0000,0.0000,0.0000,0.0000,0.0000,0.0000,0.0000,0.0000,0.0400,0.0000,0.0000,-0.0500,0.2361,0.2361,0.1748,0.1748,1,5,1749740678305393103,1749740678301043152,1749740678305603485,1749740678305586030,1749740678305615108,1749740678305616858,1749740678305939055,1749740678305945096,1749740678305979465,1749740678301041194,0
73,1749740678310948981,1749740678310356328,1749740678310356328,1749740678310953688,16.3829,560.8670,33.8000,0.0138,-0.0799,-0.1406,-3.8797,-2.9477,-8.9731,0.0000,0.0000,0.0000,0.0670,-0.1422,0.0917,0.0309,-0.0359,-0.0148,0.0224,0.0764,-0.1047,0.0013,-0.0000,-0.0003,0.0000,4151947127,1749740678310546589,0.0224,0.0764,-0.1047,0.9989,0.0007,-0.0011,0.0458,0.0000,0.0000,0.0000,0.00000000,0.00000000,0.000,0.000,0.000,0.000,0.000,0,0,0.000,0.000,0.000,0.000,0.000,0,0,0,0,0,0,0,0.0000,0.0000,-0.0500,0.0000,0.0000,0.0400,-0.0997,0.1943,0.0000,0.0000,0.0000,0.0000,0.0000,0.0000,0.0000,0.0000,0.0000,0.0000,0.0000,0.0000,0.0000,0.0000,0.0000,0.0000,0.0000,0.0000,0.0000,0.0000,0.0000,0.0000,0.0000,0.0400,0.0000,0.0000,-0.0500,0.2361,0.2361,0.1748,0.1748,1,5,1749740678310361203,1749740678305997837,1749740678310572626,1749740678310554879,1749740678310583833,1749740678310586041,1749740678310909029,1749740678310915611,1749740678310950147,1749740678305995629,0
74,1749740678316053766,1749740678315464780,1749740678315464780,1749740678316058474,16.3834,560.8670,33.8000,-0.0937,0.0533,0.0128,-2.0716,5.4838,-6.4298,0.0000,0.0000,0.0000,0.0667,-0.1422,0.0914,-0.0106,-0.0062,-0.0056,0.0224,0.0763,-0.1047,0.0008,-0.0007,0.0001,0.0000,4151955503,1749740678315654999,0.0224,0.0763,-0.1047,0.9990,0.0007,-0.0012,0.0457,0.0000,0.0000,0.0000,0.00000000,0.00000000,0.000,0.000,0.000,0.000,0.000,0,0,0.000,0.000,0.000,0.000,0.000,0,0,0,0,0,0,0,0.0000,0.0000,-0.0500,0.0000,0.0000,0.0400,-0.0997,0.1943,0.0000,0.0000,0.0000,0.0000,0.0000,0.0000,0.0000,0.0000,0.0000,0.0000,0.0000,0.0000,0.0000,0.0000,0.0000,0.0000,0.0000,0.0000,0.0000,0.0000,0.0000,0.0000,0.0000,0.0400,0.0000,0.0000,-0.0500,0.2361,0.2361,0.1748,0.1748,1,5,1749740678315469862,1749740678310969311,1749740678315680703,1749740678315663206,1749740678315691909,1749740678315693909,1749740678316014523,1749740678316020522,1749740678316054933,1749740678310967103,0
75,1749740678320851977,1749740678320415549,1749740678320415549,1749740678320856643,16.3836,560.8670,33.8000,0.1651,-0.0383,0.1353,3.3289,-2.1533,-6.8139,0.0000,0.0000,0.0000,0.0669,-0.1425,0.0914,0.0480,-0.0169,0.0414,0.0224,0.0763,-0.1047,0.0008,-0.0007,0.0001,0.0000,4151955503,1749740678315654999,0.0224,0.0763,-0.1047,0.9990,0.0007,-0.0012,0.0457,0.0000,0.0000,0.0000,0.00000000,0.00000000,0.000,0.000,0.000,0.000,0.000,0,0,0.000,0.000,0.000,0.000,0.000,0,0,0,0,0,0,0,0.0000,0.0000,-0.0500,0.0000,0.0000,0.0400,-0.0997,0.1943,0.0000,0.0000,0.0000,0.0000,0.0000,0.0000,0.0000,0.0000,0.0000,0.0000,0.0000,0.0000,0.0000,0.0000,0.0000,0.0000,0.0000,0.0000,0.0000,0.0000,0.0000,0.0000,0.0000,0.0400,0.0000,0.0000,-0.0500,0.2361,0.2361,0.1748,0.1748,1,5,1749740678320420381,1749740678316073096,1749740678320475206,1749740678320462291,1749740678320487120,1749740678320488953,1749740678320812359,1749740678320818774,1749740678320853185,1749740678316071138,0
76,1749740678326743800,1749740678326052622,1749740678326052622,1749740678326748466,16.3843,560.8814,33.8000,-0.0298,-0.0660,-0.1310,-3.3792,-3.5793,-8.9325,0.0000,0.0000,0.0000,0.0670,-0.1424,0.0916,0.0220,-0.0333,-0.0161,0.0224,0.0764,-0.1047,0.0008,-0.0004,-0.0000,0.0000,4151963727,1749740678326345449,0.0224,0.0764,-0.1047,0.9990,0.0007,-0.0011,0.0458,0.0000,0.0000,0.0000,0.00000000,0.00000000,0.000,0.000,0.000,0.000,0.000,0,0,0.000,0.000,0.000,0.000,0.000,0,0,0,0,0,0,0,0.0000,0.0000,-0.0500,0.0000,0.0000,0.0400,-0.0997,0.1943,0.0000,0.0000,0.0000,0.0000,0.0000,0.0000,0.0000,0.0000,0.0000,0.0000,0.0000,0.0000,0.0000,0.0000,0.0000,0.0000,0.0000,0.0000,0.0000,0.0000,0.0000,0.0000,0.0000,0.0400,0.0000,0.0000,-0.0500,0.2361,0.2361,0.1748,0.1748,1,5,1749740678326057038,1749740678321636556,1749740678326371236,1749740678326353489,1749740678326382484,1749740678326384317,1749740678326704723,1749740678326710722,1749740678326744966,1749740678320869599,0
77,1749740678331157032,1749740678330582252,1749740678330582252,1749740678331161948,16.3853,560.8814,33.8000,-0.0927,0.0490,0.0362,-2.6895,4.2062,-7.9138,0.0000,0.0000,0.0000,0.0668,-0.1423,0.0917,-0.0162,-0.0059,0.0013,0.0223,0.0764,-0.1047,-0.0000,-0.0004,-0.0002,0.0000,4151971763,1749740678330759348,0.0223,0.0764,-0.1047,0.9989,0.0006,-0.0011,0.0458,0.0000,0.0000,0.0000,0.00000000,0.00000000,0.000,0.000,0.000,0.000,0.000,0,0,0.000,0.000,0.000,0.000,0.000,0,0,0,0,0,0,0,0.0000,0.0000,-0.0500,0.0000,0.0000,0.0400,-0.0997,0.1943,0.0000,0.0000,0.0000,0.0000,0.0000,0.0000,0.0000,0.0000,0.0000,0.0000,0.0000,0.0000,0.0000,0.0000,0.0000,0.0000,0.0000,0.0000,0.0000,0.0000,0.0000,0.0000,0.0000,0.0400,0.0000,0.0000,-0.0500,0.2361,0.2361,0.1748,0.1748,1,5,1749740678330586126,1749740678326763963,1749740678330783719,1749740678330767221,1749740678330795133,1749740678330796883,1749740678331117705,1749740678331124246,1749740678331158449,1749740678326761713,0
78,1749740678336175457,1749740678335740237,1749740678335740237,1749740678336180123,16.3875,560.8814,33.8000,0.1683,-0.0618,0.1044,2.4428,-3.3424,-6.7781,0.0000,0.0000,0.0000,0.0671,-0.1428,0.0917,0.0453,-0.0245,0.0357,0.0223,0.0764,-0.1047,-0.0000,-0.0004,-0.0002,0.0000,4151971763,1749740678330759348,0.0223,0.0764,-0.1047,0.9989,0.0006,-0.0011,0.0458,0.0000,0.0000,0.0000,0.00000000,0.00000000,0.000,0.000,0.000,0.000,0.000,0,0,0.000,0.000,0.000,0.000,0.000,0,0,0,0,0,0,0,0.0000,0.0000,-0.0500,0.0000,0.0000,0.0400,-0.0997,0.1943,0.0000,0.0000,0.0000,0.0000,0.0000,0.0000,0.0000,0.0000,0.0000,0.0000,0.0000,0.0000,0.0000,0.0000,0.0000,0.0000,0.0000,0.0000,0.0000,0.0000,0.0000,0.0000,0.0000,0.0400,0.0000,0.0000,-0.0500,0.2361,0.2361,0.1748,0.1748,1,5,1749740678335744694,1749740678331177446,1749740678335799185,1749740678335786479,1749740678335810475,1749740678335812225,1749740678336135630,1749740678336142421,1749740678336176623,1749740678331175488,0
79,1749740678340930133,1749740678340348104,1749740678340348104,1749740678340934841,16.3884,560.8814,33.8000,-0.0213,-0.0533,-0.1385,-3.8749,-2.8544,-8.5007,0.0000,0.0000,0.0000,0.0674,-0.1427,0.0916,0.0231,-0.0341,-0.0224,0.0224,0.0763,-0.1047,0.0002,-0.0005,0.0001,0.0000,4151980624,1749740678340529491,0.0224,0.0763,-0.1047,0.9990,0.0007,-0.0010,0.0458,0.0000,0.0000,0.0000,0.00000000,0.00000000,0.000,0.000,0.000,0.000,0.000,0,0,0.000,0.000,0.000,0.000,0.000,0,0,0,0,0,0,0,0.0000,0.0000,-0.0500,0.0000,0.0000,0.0400,-0.0997,0.1943,0.0000,0.0000,0.0000,0.0000,0.0000,0.0000,0.0000,0.0000,0.0000,0.0000,0.0000,0.0000,0.0000,0.0000,0.0000,0.0000,0.0000,0.0000,0.0000,0.0000,0.0000,0.0000,0.0000,0.0400,0.0000,0.0000,-0.0500,0.2361,0.2361,0.1748,0.1748,1,5,1749740678340352603,1749740678336195037,1749740678340555195,1749740678340537448,1749740678340566985,1749740678340568734,1749740678340891265,1749740678340897222,1749740678340931300,1749740678336193079,0
80,1749740678346369280,1749740678345846741,1749740678345846741,1749740678346374488,16.3880,560.8814,33.8000,-0.0905,0.0533,0.0426,-1.0059,5.4360,-7.4748,0.0000,0.0000,0.0000,0.0671,-0.1427,0.0916,-0.0148,-0.0050,-0.0007,0.0224,0.0763,-0.1047,0.0002,-0.0005,0.0001,0.0000,4151980624,1749740678340529491,0.0224,0.0763,-0.1047,0.9990,0.0007,-0.0010,0.0458,0.0000,0.0000,0.0000,0.00000000,0.00000000,0.000,0.000,0.000,0.000,0.000,0,0,0.000,0.000,0.000,0.000,0.000,0,0,0,0,0,0,0,0.0000,0.0000,-0.0500,0.0000,0.0000,0.0400,-0.0997,0.1943,0.0000,0.0000,0.0000,0.0000,0.0000,0.0000,0.0000,0.0000,0.0000,0.0000,0.0000,0.0000,0.0000,0.0000,0.0000,0.0000,0.0000,0.0000,0.0000,0.0000,0.0000,0.0000,0.0000,0.0400,0.0000,0.0000,-0.0500,0.2361,0.2361,0.1748,0.1748,1,5,1749740678345851199,1749740678340949755,1749740678345905856,1749740678345893317,1749740678345917021,1749740678345918854,1749740678346329578,1749740678346335619,1749740678346370488,1749740678340947589,0
81,1749740678351564342,1749740678350974439,1749740678350974439,1749740678351569050,16.3887,560.8814,33.8000,0.1779,-0.0650,0.1289,2.5625,-2.6558,-7.4629,0.0000,0.0000,0.0000,0.0674,-0.1431,0.0918,0.0494,-0.0250,0.0425,0.0223,0.0764,-0.1047,-0.0002,-0.0003,-0.0001,0.0000,4151989077,1749740678351165783,0.0223,0.0764,-0.1047,0.9989,0.0005,-0.0010,0.0459,0.0000,0.0000,0.0000,0.00000000,0.00000000,0.000,0.000,0.000,0.000,0.000,0,0,0.000,0.000,0.000,0.000,0.000,0,0,0,0,0,0,0,0.0000,0.0000,-0.0500,0.0000,0.0000,0.0400,-0.0997,0.1943,0.0000,0.0000,0.0000,0.0000,0.0000,0.0000,0.0000,0.0000,0.0000,0.0000,0.0000,0.0000,0.0000,0.0000,0.0000,0.0000,0.0000,0.0000,0.0000,0.0000,0.0000,0.0000,0.0000,0.0400,0.0000,0.0000,-0.0500,0.2361,0.2361,0.1748,0.1748,1,5,1749740678350978897,1749740678346389777,1749740678351191029,1749740678351173782,1749740678351202694,1749740678351204485,1749740678351524391,1749740678351530515,1749740678351565509,1749740678346387402,0
82,1749740678356121510,1749740678355449453,1749740678355449453,1749740678356126509,16.3896,560.8814,33.8000,-0.0863,-0.0852,-0.1523,-4.2414,-2.3232,-9.2021,0.0000,0.0000,0.0000,0.0673,-0.1431,0.0914,0.0042,-0.0451,-0.0224,0.0223,0.0763,-0.1047,0.0003,-0.0008,0.0005,0.0000,4151997352,1749740678355720451,0.0223,0.0763,-0.1047,0.9990,0.0008,-0.0009,0.0457,0.0000,0.0000,0.0000,0.00000000,0.00000000,0.000,0.000,0.000,0.000,0.000,0,0,0.000,0.000,0.000,0.000,0.000,0,0,0,0,0,0,0,0.0000,0.0000,-0.0500,0.0000,0.0000,0.0400,-0.0997,0.1943,0.0000,0.0000,0.0000,0.0000,0.0000,0.0000,0.0000,0.0000,0.0000,0.0000,0.0000,0.0000,0.0000,0.0000,0.0000,0.0000,0.0000,0.0000,0.0000,0.0000,0.0000,0.0000,0.0000,0.0400,0.0000,0.0000,-0.0500,0.2361,0.2361,0.1748,0.1748,1,5,1749740678355454369,1749740678351583964,1749740678355743905,1749740678355728658,1749740678355755445,1749740678355757236,1749740678356081558,1749740678356088390,1749740678356122718,1749740678351581673,0
83,1749740678360645224,1749740678360208462,1749740678360208462,1749740678360650306,16.3894,560.8814,33.8000,-0.0810,0.0842,0.0373,-1.7124,5.6752,-6.6040,0.0000,0.0000,0.0000,0.0670,-0.1429,0.0914,-0.0242,-0.0020,-0.0025,0.0223,0.0763,-0.1047,0.0003,-0.0008,0.0005,0.0000,4151997352,1749740678355720451,0.0223,0.0763,-0.1047,0.9990,0.0008,-0.0009,0.0457,0.0000,0.0000,0.0000,0.00000000,0.00000000,0.000,0.000,0.000,0.000,0.000,0,0,0.000,0.000,0.000,0.000,0.000,0,0,0,0,0,0,0,0.0000,0.0000,-0.0500,0.0000,0.0000,0.0400,-0.0997,0.1943,0.0000,0.0000,0.0000,0.0000,0.0000,0.0000,0.0000,0.0000,0.0000,0.0000,0.0000,0.0000,0.0000,0.0000,0.0000,0.0000,0.0000,0.0000,0.0000,0.0000,0.0000,0.0000,0.0000,0.0400,0.0000,0.0000,-0.0500,0.2361,0.2361,0.1748,0.1748,1,5,1749740678360213128,1749740678356140965,1749740678360267744,1749740678360254913,1749740678360278951,1749740678360280659,1749740678360605397,1749740678360611563,1749740678360646432,1749740678356139132,0
84,1749740678365809958,1749740678365230928,1749740678365230928,1749740678365814624,16.3904,560.8814,33.8000,0.1566,-0.0735,0.1278,2.8715,-2.8400,-8.0188,0.0000,0.0000,0.0000,0.0671,-0.1434,0.0918,0.0361,-0.0258,0.0409,0.0223,0.0764,-0.1048,0.0001,-0.0003,-0.0000,0.0000,4152005494,1749740678365410898,0.0223,0.0764,-0.1048,0.9989,0.0006,-0.0010,0.0459,0.0000,0.0000,0.0000,0.00000000,0.00000000,0.000,0.000,0.000,0.000,0.000,0,0,0.000,0.000,0.000,0.000,0.000,0,0,0,0,0,0,0,0.0000,0.0000,-0.0500,0.0000,0.0000,0.0400,-0.0997,0.1943,0.0000,0.0000,0.0000,0.0000,0.0000,0.0000,0.0000,0.0000,0.0000,0.0000,0.0000,0.0000,0.0000,0.0000,0.0000,0.0000,0.0000,0.0000,0.0000,0.0000,0.0000,0.0000,0.0000,0.0400,0.0000,0.0000,-0.0500,0.2361,0.2361,0.1748,0.1748,1,5,1749740678365234886,1749740678360664637,1749740678365435019,1749740678365418855,1749740678365446684,1749740678365448434,1749740678365770089,1749740678365777047,1749740678365811124,1749740678360662804,0
85,1749740678371271643,1749740678370819301,1749740678370819301,1749740678371276309,16.3901,560.8814,33.8000,-0.0458,-0.0714,-0.1268,-4.6126,-2.3758,-8.9015,0.0000,0.0000,0.0000,0.0672,-0.1433,0.0918,0.0088,-0.0410,-0.0150,0.0223,0.0764,-0.1048,0.0001,-0.0003,-0.0000,0.0000,4152005494,1749740678365410898,0.0223,0.0764,-0.1048,0.9989,0.0006,-0.0010,0.0459,0.0000,0.0000,0.0000,0.00000000,0.00000000,0.000,0.000,0.000,0.000,0.000,0,0,0.000,0.000,0.000,0.000,0.000,0,0,0,0,0,0,0,0.0000,0.0000,-0.0500,0.0000,0.0000,0.0400,-0.0997,0.1943,0.0000,0.0000,0.0000,0.0000,0.0000,0.0000,0.0000,0.0000,0.0000,0.0000,0.0000,0.0000,0.0000,0.0000,0.0000,0.0000,0.0000,0.0000,0.0000,0.0000,0.0000,0.0000,0.0000,0.0400,0.0000,0.0000,-0.0500,0.2361,0.2361,0.1748,0.1748,1,5,1749740678370823758,1749740678365829996,1749740678370877999,1749740678370865418,1749740678370889539,1749740678370891330,1749740678371231649,1749740678371237898,1749740678371272809,1749740678365828038,0
86,1749740678376496908,1749740678375909422,1749740678375909422,1749740678376501616,16.3909,560.8207,33.8100,-0.0810,0.0426,0.0277,-0.5700,5.2446,-7.9472,0.0000,0.0000,0.0000,0.0670,-0.1434,0.0914,-0.0211,-0.0131,-0.0008,0.0223,0.0763,-0.1047,0.0001,-0.0007,0.0003,0.0000,4152013360,1749740678376096599,0.0223,0.0763,-0.1047,0.9990,0.0008,-0.0010,0.0457,0.0000,0.0000,0.0000,0.00000000,0.00000000,0.000,0.000,0.000,0.000,0.000,0,0,0.000,0.000,0.000,0.000,0.000,0,0,0,0,0,0,0,0.0000,0.0000,-0.0500,0.0000,0.0000,0.0400,-0.0997,0.1943,0.0000,0.0000,0.0000,0.0000,0.0000,0.0000,0.0000,0.0000,0.0000,0.0000,0.0000,0.0000,0.0000,0.0000,0.0000,0.0000,0.0000,0.0000,0.0000,0.0000,0.0000,0.0000,0.0000,0.0400,0.0000,0.0000,-0.0500,0.2361,0.2361,0.1748,0.1748,1,5,1749740678375913213,1749740678371821802,1749740678376120470,1749740678376104473,1749740678376132135,1749740678376133885,1749740678376456957,1749740678376463206,1749740678376498075,1749740678371290806,0
87,1749740678380957175,1749740678380339735,1749740678380339735,1749740678380962257,16.3918,560.8207,33.8100,0.1704,-0.0341,0.1119,3.0822,-1.7035,-8.5150,0.0000,0.0000,0.0000,0.0672,-0.1436,0.0917,0.0427,-0.0201,0.0368,0.0224,0.0763,-0.1047,0.0010,-0.0002,0.0001,0.0000,4152022244,1749740678380523163,0.0224,0.0763,-0.1047,0.9989,0.0006,-0.0010,0.0458,0.0000,0.0000,0.0000,0.00000000,0.00000000,0.000,0.000,0.000,0.000,0.000,0,0,0.000,0.000,0.000,0.000,0.000,0,0,0,0,0,0,0,0.0000,0.0000,-0.0500,0.0000,0.0000,0.0400,-0.0997,0.1943,0.0000,0.0000,0.0000,0.0000,0.0000,0.0000,0.0000,0.0000,0.0000,0.0000,0.0000,0.0000,0.0000,0.0000,0.0000,0.0000,0.0000,0.0000,0.0000,0.0000,0.0000,0.0000,0.0000,0.0400,0.0000,0.0000,-0.0500,0.2361,0.2361,0.1748,0.1748,1,5,1749740678380344192,1749740678376518030,1749740678380583986,1749740678380566072,1749740678380595651,1749740678380597401,1749740678380917306,1749740678380923805,1749740678380958341,1749740678376516072,0
88,1749740678386034131,1749740678385597995,1749740678385597995,1749740678386039214,16.3921,560.8207,33.8100,-0.0778,-0.0682,-0.1097,-3.4750,-1.5169,-9.1377,0.0000,0.0000,0.0000,0.0670,-0.1435,0.0917,0.0026,-0.0361,-0.0121,0.0224,0.0763,-0.1047,0.0010,-0.0002,0.0001,0.0000,4152022244,1749740678380523163,0.0224,0.0763,-0.1047,0.9989,0.0006,-0.0010,0.0458,0.0000,0.0000,0.0000,0.00000000,0.00000000,0.000,0.000,0.000,0.000,0.000,0,0,0.000,0.000,0.000,0.000,0.000,0,0,0,0,0,0,0,0.0000,0.0000,-0.0500,0.0000,0.0000,0.0400,-0.0997,0.1943,0.0000,0.0000,0.0000,0.0000,0.0000,0.0000,0.0000,0.0000,0.0000,0.0000,0.0000,0.0000,0.0000,0.0000,0.0000,0.0000,0.0000,0.0000,0.0000,0.0000,0.0000,0.0000,0.0000,0.0400,0.0000,0.0000,-0.0500,0.2361,0.2361,0.1748,0.1748,1,5,1749740678385602494,1749740678380977338,1749740678385657152,1749740678385644071,1749740678385668483,1749740678385670275,1749740678385994263,1749740678386000429,1749740678386035340,1749740678380974922,0
89,1749740678391079593,1749740678390491440,1749740678390491440,1749740678391084343,16.3933,560.8207,33.8100,-0.0543,0.0362,0.0224,-0.5245,6.3667,-7.8160,0.0000,0.0000,0.0000,0.0668,-0.1435,0.0916,-0.0164,-0.0120,-0.0006,0.0223,0.0764,-0.1047,0.0004,0.0001,-0.0000,0.0000,4152030720,1749740678390681367,0.0223,0.0764,-0.1047,0.9990,0.0007,-0.0010,0.0458,0.0000,0.0000,0.0000,0.00000000,0.00000000,0.000,0.000,0.000,0.000,0.000,0,0,0.000,0.000,0.000,0.000,0.000,0,0,0,0,0,0,0,0.0000,0.0000,-0.0500,0.0000,0.0000,0.0400,-0.0997,0.1943,0.0000,0.0000,0.0000,0.0000,0.0000,0.0000,0.0000,0.0000,0.0000,0.0000,0.0000,0.0000,0.0000,0.0000,0.0000,0.0000,0.0000,0.0000,0.0000,0.0000,0.0000,0.0000,0.0000,0.0400,0.0000,0.0000,-0.0500,0.2361,0.2361,0.1748,0.1748,1,5,1749740678390495856,1749740678386054295,1749740678390706988,1749740678390689283,1749740678390718736,1749740678390720486,1749740678391039767,1749740678391045766,1749740678391080843,1749740678386052004,0
90,1749740678396132721,1749740678395697417,1749740678395697417,1749740678396137345,16.3935,560.8207,33.8100,0.1491,-0.0671,0.0842,2.7469,-2.3041,-9.0995,0.0000,0.0000,0.0000,0.0668,-0.1438,0.0916,0.0388,-0.0304,0.0277,0.0223,0.0764,-0.1047,0.0004,0.0001,-0.0000,0.0000,4152030720,1749740678390681367,0.0223,0.0764,-0.1047,0.9990,0.0007,-0.0010,0.0458,0.0000,0.0000,0.0000,0.00000000,0.00000000,0.000,0.000,0.000,0.000,0.000,0,0,0.000,0.000,0.000,0.000,0.000,0,0,0,0,0,0,0,0.0000,0.0000,-0.0500,0.0000,0.0000,0.0400,-0.0997,0.1943,0.0000,0.0000,0.0000,0.0000,0.0000,0.0000,0.0000,0.0000,0.0000,0.0000,0.0000,0.0000,0.0000,0.0000,0.0000,0.0000,0.0000,0.0000,0.0000,0.0000,0.0000,0.0000,0.0000,0.0400,0.0000,0.0000,-0.0500,0.2361,0.2361,0.1748,0.1748,1,5,1749740678395701833,1749740678391099382,1749740678395756199,1749740678395743493,1749740678395767822,1749740678395769614,1749740678396093019,1749740678396099143,1749740678396133887,1749740678391097424,0
91,1749740678401112068,1749740678400525956,1749740678400525956,1749740678401116776,16.3930,560.8207,33.8100,-0.0895,-0.0362,-0.1055,-3.6331,-2.0648,-11.9339,0.0000,0.0000,0.0000,0.0666,-0.1436,0.0916,-0.0040,-0.0323,-0.0167,0.0224,0.0764,-0.1047,0.0008,0.0000,0.0000,0.0000,4152039051,1749740678400712217,0.0224,0.0764,-0.1047,0.9990,0.0008,-0.0010,0.0458,0.0000,0.0000,0.0000,0.00000000,0.00000000,0.000,0.000,0.000,0.000,0.000,0,0,0.000,0.000,0.000,0.000,0.000,0,0,0,0,0,0,0,0.0000,0.0000,-0.0500,0.0000,0.0000,0.0400,-0.0997,0.1943,0.0000,0.0000,0.0000,0.0000,0.0000,0.0000,0.0000,0.0000,0.0000,0.0000,0.0000,0.0000,0.0000,0.0000,0.0000,0.0000,0.0000,0.0000,0.0000,0.0000,0.0000,0.0000,0.0000,0.0400,0.0000,0.0000,-0.0500,0.2361,0.2361,0.1748,0.1748,1,5,1749740678400530247,1749740678396152092,1749740678400737047,1749740678400720174,1749740678400748461,1749740678400750211,1749740678401071908,1749740678401078199,1749740678401113276,1749740678396150176,0
92,1749740678406021552,1749740678405588457,1749740678405588457,1749740678406026218,16.3925,560.8207,33.8100,-0.0021,0.0458,0.0629,0.0144,4.9909,-8.3719,0.0000,0.0000,0.0000,0.0667,-0.1435,0.0916,-0.0034,-0.0063,0.0098,0.0224,0.0764,-0.1047,0.0008,0.0000,0.0000,0.0000,4152039051,1749740678400712217,0.0224,0.0764,-0.1047,0.9990,0.0008,-0.0010,0.0458,0.0000,0.0000,0.0000,0.00000000,0.00000000,0.000,0.000,0.000,0.000,0.000,0,0,0.000,0.000,0.000,0.000,0.000,0,0,0,0,0,0,0,0.0000,0.0000,-0.0500,0.0000,0.0000,0.0400,-0.0997,0.1943,0.0000,0.0000,0.0000,0.0000,0.0000,0.0000,0.0000,0.0000,0.0000,0.0000,0.0000,0.0000,0.0000,0.0000,0.0000,0.0000,0.0000,0.0000,0.0000,0.0000,0.0000,0.0000,0.0000,0.0400,0.0000,0.0000,-0.0500,0.2361,0.2361,0.1748,0.1748,1,5,1749740678405592956,1749740678401131565,1749740678405647822,1749740678405634616,1749740678405659237,1749740678405660987,1749740678405982184,1749740678405988183,1749740678406022761,1749740678401129607,0
93,1749740678411014481,1749740678410579428,1749740678410579428,1749740678411019439,16.3938,560.8207,33.8100,0.1651,-0.0778,0.0724,1.8297,-2.9955,-9.3095,0.0000,0.0000,0.0000,0.0670,-0.1438,0.0916,0.0528,-0.0301,0.0307,0.0224,0.0764,-0.1047,0.0008,0.0000,0.0000,0.0000,4152039051,1749740678400712217,0.0224,0.0764,-0.1047,0.9990,0.0008,-0.0010,0.0458,0.0000,0.0000,0.0000,0.00000000,0.00000000,0.000,0.000,0.000,0.000,0.000,0,0,0.000,0.000,0.000,0.000,0.000,0,0,0,0,0,0,0,0.0000,0.0000,-0.0500,0.0000,0.0000,0.0400,-0.0997,0.1943,0.0000,0.0000,0.0000,0.0000,0.0000,0.0000,0.0000,0.0000,0.0000,0.0000,0.0000,0.0000,0.0000,0.0000,0.0000,0.0000,0.0000,0.0000,0.0000,0.0000,0.0000,0.0000,0.0000,0.0400,0.0000,0.0000,-0.0500,0.2361,0.2361,0.1748,0.1748,1,5,1749740678410584260,1749740678406041049,1749740678410638918,1749740678410626170,1749740678410650208,1749740678410651958,1749740678410974696,1749740678410980945,1749740678411015648,1749740678406039133,0
94,1749740678416711378,1749740678416056860,1749740678416056860,1749740678416716127,16.3942,560.8207,33.8100,-0.1097,-0.0181,-0.1268,-3.8749,-0.3541,-12.0508,0.0000,0.0000,0.0000,0.0668,-0.1436,0.0916,-0.0014,-0.0261,-0.0218,0.0224,0.0764,-0.1048,0.0007,0.0000,-0.0001,0.0000,4152048144,1749740678416313401,0.0224,0.0764,-0.1048,0.9990,0.0008,-0.0012,0.0458,0.0000,0.0000,0.0000,0.00000000,0.00000000,0.000,0.000,0.000,0.000,0.000,0,0,0.000,0.000,0.000,0.000,0.000,0,0,0,0,0,0,0,0.0000,0.0000,-0.0500,0.0000,0.0000,0.0400,-0.0997,0.1943,0.0000,0.0000,0.0000,0.0000,0.0000,0.0000,0.0000,0.0000,0.0000,0.0000,0.0000,0.0000,0.0000,0.0000,0.0000,0.0000,0.0000,0.0000,0.0000,0.0000,0.0000,0.0000,0.0000,0.0400,0.0000,0.0000,-0.0500,0.2361,0.2361,0.1748,0.1748,1,5,1749740678416060735,1749740678411035561,1749740678416336356,1749740678416321525,1749740678416348229,1749740678416350062,1749740678416671509,1749740678416677716,1749740678416712586,1749740678411033645,0
95,1749740678421012587,1749740678420540040,1749740678420540040,1749740678421017669,16.3955,560.8207,33.8100,0.0000,0.0522,0.0650,0.8861,5.1297,-7.9973,0.0000,0.0000,0.0000,0.0667,-0.1435,0.0916,-0.0009,-0.0000,0.0071,0.0224,0.0764,-0.1048,0.0007,0.0000,-0.0001,0.0000,4152048144,1749740678416313401,0.0224,0.0764,-0.1048,0.9990,0.0008,-0.0012,0.0458,0.0000,0.0000,0.0000,0.00000000,0.00000000,0.000,0.000,0.000,0.000,0.000,0,0,0.000,0.000,0.000,0.000,0.000,0,0,0,0,0,0,0,0.0000,0.0000,-0.0500,0.0000,0.0000,0.0400,-0.0997,0.1943,0.0000,0.0000,0.0000,0.0000,0.0000,0.0000,0.0000,0.0000,0.0000,0.0000,0.0000,0.0000,0.0000,0.0000,0.0000,0.0000,0.0000,0.0000,0.0000,0.0000,0.0000,0.0000,0.0000,0.0400,0.0000,0.0000,-0.0500,0.2361,0.2361,0.1748,0.1748,1,5,1749740678420544456,1749740678416732749,1749740678420637524,1749740678420624734,1749740678420648730,1749740678420650521,1749740678420972510,1749740678420978426,1749740678421013753,1749740678416730833,0
96,1749740678426204691,1749740678425530969,1749740678425530969,1749740678426210690,16.3957,560.8354,33.8100,0.1768,-0.0852,0.0937,1.6908,-3.0123,-11.4233,0.0000,0.0000,0.0000,0.0669,-0.1438,0.0914,0.0583,-0.0284,0.0360,0.0224,0.0764,-0.1047,0.0010,-0.0002,0.0002,0.0000,4152055716,1749740678425690942,0.0224,0.0764,-0.1047,0.9990,0.0010,-0.0012,0.0457,0.0000,0.0000,0.0000,0.00000000,0.00000000,0.000,0.000,0.000,0.000,0.000,0,0,0.000,0.000,0.000,0.000,0.000,0,0,0,0,0,0,0,0.0000,0.0000,-0.0500,0.0000,0.0000,0.0400,-0.0997,0.1943,0.0000,0.0000,0.0000,0.0000,0.0000,0.0000,0.0000,0.0000,0.0000,0.0000,0.0000,0.0000,0.0000,0.0000,0.0000,0.0000,0.0000,0.0000,0.0000,0.0000,0.0000,0.0000,0.0000,0.0400,0.0000,0.0000,-0.0500,0.2361,0.2361,0.1748,0.1748,1,5,1749740678425535593,1749740678421726469,1749740678425716522,1749740678425698733,1749740678425728145,1749740678425729936,1749740678426049592,1749740678426056007,1749740678426206691,1749740678421030751,0
97,1749740678431279148,1749740678430777814,1749740678430777814,1749740678431283856,16.3955,560.8354,33.8100,-0.1438,-0.0597,-0.1289,-4.0737,-0.8853,-13.7615,0.0000,0.0000,0.0000,0.0665,-0.1437,0.0914,-0.0090,-0.0388,-0.0190,0.0224,0.0764,-0.1047,0.0010,-0.0002,0.0002,0.0000,4152055716,1749740678425690942,0.0224,0.0764,-0.1047,0.9990,0.0010,-0.0012,0.0457,0.0000,0.0000,0.0000,0.00000000,0.00000000,0.000,0.000,0.000,0.000,0.000,0,0,0.000,0.000,0.000,0.000,0.000,0,0,0,0,0,0,0,0.0000,0.0000,-0.0500,0.0000,0.0000,0.0400,-0.0997,0.1943,0.0000,0.0000,0.0000,0.0000,0.0000,0.0000,0.0000,0.0000,0.0000,0.0000,0.0000,0.0000,0.0000,0.0000,0.0000,0.0000,0.0000,0.0000,0.0000,0.0000,0.0000,0.0000,0.0000,0.0400,0.0000,0.0000,-0.0500,0.2361,0.2361,0.1748,0.1748,1,5,1749740678430782230,1749740678426225271,1749740678430903960,1749740678430891337,1749740678430915750,1749740678430917499,1749740678431239405,1749740678431245362,1749740678431280315,1749740678426223105,0
98,1749740678436515912,1749740678435985083,1749740678435985083,1749740678436520578,16.3947,560.8354,33.8100,0.0277,0.0948,0.0501,1.2621,4.5555,-11.1108,0.0000,0.0000,0.0000,0.0667,-0.1435,0.0916,0.0032,0.0057,0.0040,0.0224,0.0764,-0.1048,0.0008,0.0002,-0.0001,0.0000,4152064633,1749740678436116061,0.0224,0.0764,-0.1048,0.9990,0.0008,-0.0012,0.0458,0.0000,0.0000,0.0000,0.00000000,0.00000000,0.000,0.000,0.000,0.000,0.000,0,0,0.000,0.000,0.000,0.000,0.000,0,0,0,0,0,0,0,0.0000,0.0000,-0.0500,0.0000,0.0000,0.0400,-0.0997,0.1943,0.0000,0.0000,0.0000,0.0000,0.0000,0.0000,0.0000,0.0000,0.0000,0.0000,0.0000,0.0000,0.0000,0.0000,0.0000,0.0000,0.0000,0.0000,0.0000,0.0000,0.0000,0.0000,0.0000,0.0400,0.0000,0.0000,-0.0500,0.2361,0.2361,0.1748,0.1748,1,5,1749740678435989790,1749740678431298770,1749740678436141765,1749740678436124268,1749740678436153763,1749740678436155513,1749740678436476252,1749740678436482293,1749740678436517078,1749740678431296854,0
99,1749740678441704975,1749740678441036294,1749740678441036294,1749740678441709683,16.3942,560.8354,33.8100,0.1587,-0.0820,0.0884,1.5639,-3.4070,-13.2056,0.0000,0.0000,0.0000,0.0669,-0.1436,0.0915,0.0550,-0.0235,0.0322,0.0224,0.0764,-0.1047,0.0006,-0.0002,0.0005,0.0000,4152072667,1749740678441308499,0.0224,0.0764,-0.1047,0.9990,0.0009,-0.0011,0.0457,0.0000,0.0000,0.0000,0.00000000,0.00000000,0.000,0.000,0.000,0.000,0.000,0,0,0.000,0.000,0.000,0.000,0.000,0,0,0,0,0,0,0,0.0000,0.0000,-0.0500,0.0000,0.0000,0.0400,-0.0997,0.1943,0.0000,0.0000,0.0000,0.0000,0.0000,0.0000,0.0000,0.0000,0.0000,0.0000,0.0000,0.0000,0.0000,0.0000,0.0000,0.0000,0.0000,0.0000,0.0000,0.0000,0.0000,0.0000,0.0000,0.0400,0.0000,0.0000,-0.0500,0.2361,0.2361,0.1748,0.1748,1,5,1749740678441040709,1749740678436534992,1749740678441332245,1749740678441316997,1749740678441343493,1749740678441345201,1749740678441665482,1749740678441671522,1749740678441706183,1749740678436533076,0
100,1749740678445994478,1749740678445437111,1749740678445437111,1749740678445999186,16.3940,560.8354,33.8100,-0.1300,-0.0288,-0.1097,-4.7251,-0.3637,-13.7615,0.0000,0.0000,0.0000,0.0666,-0.1434,0.0915,-0.0066,-0.0253,-0.0151,0.0224,0.0764,-0.1047,0.0006,-0.0002,0.0005,0.0000,4152072667,1749740678441308499,0.0224,0.0764,-0.1047,0.9990,0.0009,-0.0011,0.0457,0.0000,0.0000,0.0000,0.00000000,0.00000000,0.000,0.000,0.000,0.000,0.000,0,0,0.000,0.000,0.000,0.000,0.000,0,0,0,0,0,0,0,0.0000,0.0000,-0.0500,0.0000,0.0000,0.0400,-0.0997,0.1943,0.0000,0.0000,0.0000,0.0000,0.0000,0.0000,0.0000,0.0000,0.0000,0.0000,0.0000,0.0000,0.0000,0.0000,0.0000,0.0000,0.0000,0.0000,0.0000,0.0000,0.0000,0.0000,0.0000,0.0400,0.0000,0.0000,-0.0500,0.2361,0.2361,0.1748,0.1748,1,5,1749740678445441777,1749740678441724222,1749740678445620789,1749740678445608000,1749740678445632413,1749740678445634162,1749740678445955693,1749740678445961650,1749740678445995645,1749740678441722264,0
101,1749740678451121093,1749740678450648588,1749740678450648588,1749740678451126301,16.3935,560.8354,33.8100,0.0352,0.0330,0.0330,1.3771,3.6032,-9.7366,0.0000,0.0000,0.0000,0.0667,-0.1435,0.0917,0.0073,-0.0058,0.0009,0.0224,0.0764,-0.1048,0.0008,0.0000,0.0002,0.0000,4152080624,1749740678450716743,0.0224,0.0764,-0.1048,0.9989,0.0008,-0.0011,0.0458,0.0000,0.0000,0.0000,0.00000000,0.00000000,0.000,0.000,0.000,0.000,0.000,0,0,0.000,0.000,0.000,0.000,0.000,0,0,0,0,0,0,0,0.0000,0.0000,-0.0500,0.0000,0.0000,0.0400,-0.0997,0.1943,0.0000,0.0000,0.0000,0.0000,0.0000,0.0000,0.0000,0.0000,0.0000,0.0000,0.0000,0.0000,0.0000,0.0000,0.0000,0.0000,0.0000,0.0000,0.0000,0.0000,0.0000,0.0000,0.0000,0.0400,0.0000,0.0000,-0.0500,0.2361,0.2361,0.1748,0.1748,1,5,1749740678450653295,1749740678446014308,1749740678450742864,1749740678450725075,1749740678450754570,1749740678450756320,1749740678451081058,1749740678451087057,1749740678451122260,1749740678446012392,0
102,1749740678455920720,1749740678455332401,1749740678455332401,1749740678455925428,16.3938,560.8354,33.8100,0.1545,-0.0405,0.0714,1.2741,-3.2491,-12.0604,0.0000,0.0000,0.0000,0.0670,-0.1435,0.0915,0.0564,-0.0174,0.0244,0.0223,0.0764,-0.1048,-0.0002,-0.0000,0.0003,0.0000,4152089065,1749740678455521286,0.0223,0.0764,-0.1048,0.9990,0.0009,-0.0011,0.0458,0.0000,0.0000,0.0000,0.00000000,0.00000000,0.000,0.000,0.000,0.000,0.000,0,0,0.000,0.000,0.000,0.000,0.000,0,0,0,0,0,0,0,0.0000,0.0000,-0.0500,0.0000,0.0000,0.0400,-0.0997,0.1943,0.0000,0.0000,0.0000,0.0000,0.0000,0.0000,0.0000,0.0000,0.0000,0.0000,0.0000,0.0000,0.0000,0.0000,0.0000,0.0000,0.0000,0.0000,0.0000,0.0000,0.0000,0.0000,0.0000,0.0400,0.0000,0.0000,-0.0500,0.2361,0.2361,0.1748,0.1748,1,5,1749740678455336858,1749740678451141798,1749740678455547157,1749740678455529410,1749740678455558697,1749740678455560446,1749740678455881102,1749740678455887101,1749740678455921887,1749740678451139632,0
103,1749740678461423357,1749740678460831121,1749740678460831121,1749740678461428648,16.3950,560.8354,33.8100,-0.1555,-0.0320,-0.0746,-3.8654,0.9427,-13.0982,0.0000,0.0000,0.0000,0.0665,-0.1433,0.0917,-0.0143,-0.0222,-0.0086,0.0224,0.0764,-0.1048,0.0001,-0.0001,0.0002,0.0000,4152097236,1749740678461021090,0.0224,0.0764,-0.1048,0.9989,0.0008,-0.0010,0.0458,0.0000,0.0000,0.0000,0.00000000,0.00000000,0.000,0.000,0.000,0.000,0.000,0,0,0.000,0.000,0.000,0.000,0.000,0,0,0,0,0,0,0,0.0000,0.0000,-0.0500,0.0000,0.0000,0.0400,-0.0997,0.1943,0.0000,0.0000,0.0000,0.0000,0.0000,0.0000,0.0000,0.0000,0.0000,0.0000,0.0000,0.0000,0.0000,0.0000,0.0000,0.0000,0.0000,0.0000,0.0000,0.0000,0.0000,0.0000,0.0000,0.0400,0.0000,0.0000,-0.0500,0.2361,0.2361,0.1748,0.1748,1,5,1749740678460835537,1749740678455940509,1749740678461047294,1749740678461029464,1749740678461058584,1749740678461060333,1749740678461384197,1749740678461390279,1749740678461424524,1749740678455938551,0
104,1749740678465865168,1749740678465276640,1749740678465276640,1749740678465869917,16.3942,560.8354,33.8100,0.0703,0.0362,0.0405,1.9902,3.5913,-10.1803,0.0000,0.0000,0.0000,0.0666,-0.1433,0.0917,0.0139,-0.0028,0.0078,0.0223,0.0764,-0.1048,-0.0006,0.0001,0.0001,0.0000,4152105777,1749740678465466359,0.0223,0.0764,-0.1048,0.9989,0.0007,-0.0010,0.0458,0.0000,0.0000,0.0000,0.00000000,0.00000000,0.000,0.000,0.000,0.000,0.000,0,0,0.000,0.000,0.000,0.000,0.000,0,0,0,0,0,0,0,0.0000,0.0000,-0.0500,0.0000,0.0000,0.0400,-0.0997,0.1943,0.0000,0.0000,0.0000,0.0000,0.0000,0.0000,0.0000,0.0000,0.0000,0.0000,0.0000,0.0000,0.0000,0.0000,0.0000,0.0000,0.0000,0.0000,0.0000,0.0000,0.0000,0.0000,0.0000,0.0400,0.0000,0.0000,-0.0500,0.2361,0.2361,0.1748,0.1748,1,5,1749740678465281306,1749740678461443062,1749740678465492521,1749740678465474732,1749740678465503811,1749740678465505561,1749740678465825300,1749740678465831340,1749740678465866335,1749740678461441146,0
105,1749740678470450372,1749740678469923876,1749740678469923876,1749740678470455705,16.3935,560.8354,33.8100,0.1044,-0.0639,0.0277,1.0083,-3.2826,-12.4803,0.0000,0.0000,0.0000,0.0667,-0.1433,0.0917,0.0441,-0.0231,0.0144,0.0223,0.0764,-0.1048,-0.0006,0.0001,0.0001,0.0000,4152105777,1749740678465466359,0.0223,0.0764,-0.1048,0.9989,0.0007,-0.0010,0.0458,0.0000,0.0000,0.0000,0.00000000,0.00000000,0.000,0.000,0.000,0.000,0.000,0,0,0.000,0.000,0.000,0.000,0.000,0,0,0,0,0,0,0,0.0000,0.0000,-0.0500,0.0000,0.0000,0.0400,-0.0997,0.1943,0.0000,0.0000,0.0000,0.0000,0.0000,0.0000,0.0000,0.0000,0.0000,0.0000,0.0000,0.0000,0.0000,0.0000,0.0000,0.0000,0.0000,0.0000,0.0000,0.0000,0.0000,0.0000,0.0000,0.0400,0.0000,0.0000,-0.0500,0.2361,0.2361,0.1748,0.1748,1,5,1749740678469928375,1749740678465884957,1749740678469983408,1749740678469970701,1749740678469995156,1749740678469996905,1749740678470410879,1749740678470417003,1749740678470451830,1749740678465883040,0
106,1749740678476284038,1749740678475692885,1749740678475692885,1749740678476288704,16.3938,560.8498,33.8100,-0.1896,0.0128,-0.0682,-3.5732,2.5122,-12.3753,0.0000,0.0000,0.0000,0.0661,-0.1429,0.0915,-0.0338,-0.0112,-0.0131,0.0224,0.0764,-0.1047,-0.0001,-0.0002,0.0003,0.0000,4152114206,1749740678475883354,0.0224,0.0764,-0.1047,0.9990,0.0009,-0.0010,0.0458,0.0000,0.0000,0.0000,0.00000000,0.00000000,0.000,0.000,0.000,0.000,0.000,0,0,0.000,0.000,0.000,0.000,0.000,0,0,0,0,0,0,0,0.0000,0.0000,-0.0500,0.0000,0.0000,0.0400,-0.0997,0.1943,0.0000,0.0000,0.0000,0.0000,0.0000,0.0000,0.0000,0.0000,0.0000,0.0000,0.0000,0.0000,0.0000,0.0000,0.0000,0.0000,0.0000,0.0000,0.0000,0.0000,0.0000,0.0000,0.0000,0.0400,0.0000,0.0000,-0.0500,0.2361,0.2361,0.1748,0.1748,1,5,1749740678475697259,1749740678471012280,1749740678475909225,1749740678475891477,1749740678475920848,1749740678475922597,1749740678476244753,1749740678476250877,1749740678476285246,1749740678470468661,0
107,1749740678480460351,1749740678479895194,1749740678479895194,1749740678480464767,16.3952,560.8498,33.8100,0.1172,0.0245,0.0842,2.2799,1.7968,-8.8490,0.0000,0.0000,0.0000,0.0663,-0.1430,0.0916,0.0165,0.0007,0.0193,0.0223,0.0764,-0.1048,-0.0010,0.0005,-0.0003,0.0000,4152122153,1749740678480129364,0.0223,0.0764,-0.1048,0.9990,0.0007,-0.0010,0.0458,0.0000,0.0000,0.0000,0.00000000,0.00000000,0.000,0.000,0.000,0.000,0.000,0,0,0.000,0.000,0.000,0.000,0.000,0,0,0,0,0,0,0,0.0000,0.0000,-0.0500,0.0000,0.0000,0.0400,-0.0997,0.1943,0.0000,0.0000,0.0000,0.0000,0.0000,0.0000,0.0000,0.0000,0.0000,0.0000,0.0000,0.0000,0.0000,0.0000,0.0000,0.0000,0.0000,0.0000,0.0000,0.0000,0.0000,0.0000,0.0000,0.0400,0.0000,0.0000,-0.0500,0.2361,0.2361,0.1748,0.1748,1,5,1749740678479898860,1749740678476303326,1749740678480147361,1749740678480135404,1749740678480157151,1749740678480158734,1749740678480428481,1749740678480434439,1749740678480461518,1749740678476301368,0
108,1749740678485673119,1749740678485237690,1749740678485237690,1749740678485677826,16.3971,560.8498,33.8100,0.0671,-0.1076,0.0043,-0.1964,-6.6681,-10.2662,0.0000,0.0000,0.0000,0.0664,-0.1432,0.0916,0.0334,-0.0354,0.0143,0.0223,0.0764,-0.1048,-0.0010,0.0005,-0.0003,0.0000,4152122153,1749740678480129364,0.0223,0.0764,-0.1048,0.9990,0.0007,-0.0010,0.0458,0.0000,0.0000,0.0000,0.00000000,0.00000000,0.000,0.000,0.000,0.000,0.000,0,0,0.000,0.000,0.000,0.000,0.000,0,0,0,0,0,0,0,0.0000,0.0000,-0.0500,0.0000,0.0000,0.0400,-0.0997,0.1943,0.0000,0.0000,0.0000,0.0000,0.0000,0.0000,0.0000,0.0000,0.0000,0.0000,0.0000,0.0000,0.0000,0.0000,0.0000,0.0000,0.0000,0.0000,0.0000,0.0000,0.0000,0.0000,0.0000,0.0400,0.0000,0.0000,-0.0500,0.2361,0.2361,0.1748,0.1748,1,5,1749740678485242190,1749740678480477140,1749740678485296847,1749740678485284058,1749740678485308095,1749740678485309887,1749740678485632750,1749740678485639041,1749740678485674285,1749740678480475599,0
109,1749740678491382388,1749740678490792235,1749740678490792235,1749740678491387096,16.3988,560.8498,33.8100,-0.1822,0.0394,-0.0714,-4.4162,3.6750,-10.5072,0.0000,0.0000,0.0000,0.0661,-0.1429,0.0914,-0.0385,-0.0105,-0.0143,0.0224,0.0763,-0.1047,-0.0007,-0.0001,0.0001,0.0000,4152130688,1749740678490981954,0.0224,0.0763,-0.1047,0.9990,0.0008,-0.0010,0.0457,0.0000,0.0000,0.0000,0.00000000,0.00000000,0.000,0.000,0.000,0.000,0.000,0,0,0.000,0.000,0.000,0.000,0.000,0,0,0,0,0,0,0,0.0000,0.0000,-0.0500,0.0000,0.0000,0.0400,-0.0997,0.1943,0.0000,0.0000,0.0000,0.0000,0.0000,0.0000,0.0000,0.0000,0.0000,0.0000,0.0000,0.0000,0.0000,0.0000,0.0000,0.0000,0.0000,0.0000,0.0000,0.0000,0.0000,0.0000,0.0000,0.0400,0.0000,0.0000,-0.0500,0.2361,0.2361,0.1748,0.1748,1,5,1749740678490796734,1749740678485692990,1749740678491006700,1749740678490989786,1749740678491018240,1749740678491020031,1749740678491342936,1749740678491348935,1749740678491383596,1749740678485691074,0
110,1749740678495737213,1749740678495301243,1749740678495301243,1749740678495742129,16.4015,560.8498,33.8100,0.1459,0.0426,0.0916,3.6426,1.2944,-8.0474,0.0000,0.0000,0.0000,0.0664,-0.1430,0.0914,0.0230,0.0072,0.0210,0.0224,0.0763,-0.1047,-0.0007,-0.0001,0.0001,0.0000,4152130688,1749740678490981954,0.0224,0.0763,-0.1047,0.9990,0.0008,-0.0010,0.0457,0.0000,0.0000,0.0000,0.00000000,0.00000000,0.000,0.000,0.000,0.000,0.000,0,0,0.000,0.000,0.000,0.000,0.000,0,0,0,0,0,0,0,0.0000,0.0000,-0.0500,0.0000,0.0000,0.0400,-0.0997,0.1943,0.0000,0.0000,0.0000,0.0000,0.0000,0.0000,0.0000,0.0000,0.0000,0.0000,0.0000,0.0000,0.0000,0.0000,0.0000,0.0000,0.0000,0.0000,0.0000,0.0000,0.0000,0.0000,0.0000,0.0400,0.0000,0.0000,-0.0500,0.2361,0.2361,0.1748,0.1748,1,5,1749740678495305701,1749740678491401926,1749740678495360400,1749740678495347694,1749740678495372190,1749740678495373940,1749740678495697428,1749740678495703927,1749740678495738422,1749740678491399760,0
111,1749740678501454356,1749740678500862912,1749740678500862912,1749740678501459314,16.4037,560.8498,33.8100,0.0671,-0.1182,0.0096,-0.4023,-4.6057,-9.0208,0.0000,0.0000,0.0000,0.0665,-0.1431,0.0916,0.0377,-0.0346,0.0172,0.0224,0.0764,-0.1048,-0.0006,0.0003,-0.0003,0.0000,4152138586,1749740678501053172,0.0224,0.0764,-0.1048,0.9990,0.0007,-0.0010,0.0458,0.0000,0.0000,0.0000,0.00000000,0.00000000,0.000,0.000,0.000,0.000,0.000,0,0,0.000,0.000,0.000,0.000,0.000,0,0,0,0,0,0,0,0.0000,0.0000,-0.0500,0.0000,0.0000,0.0400,-0.0997,0.1943,0.0000,0.0000,0.0000,0.0000,0.0000,0.0000,0.0000,0.0000,0.0000,0.0000,0.0000,0.0000,0.0000,0.0000,0.0000,0.0000,0.0000,0.0000,0.0000,0.0000,0.0000,0.0000,0.0000,0.0400,0.0000,0.0000,-0.0500,0.2361,0.2361,0.1748,0.1748,1,5,1749740678500867370,1749740678495757002,1749740678501078835,1749740678501061171,1749740678501090250,1749740678501091999,1749740678501414488,1749740678501420529,1749740678501455523,1749740678495755044,0
112,1749740678505927287,1749740678505491609,1749740678505491609,1749740678505932287,16.4063,560.8498,33.8100,-0.1854,0.0160,-0.0799,-3.9707,3.2922,-9.0685,0.0000,0.0000,0.0000,0.0661,-0.1429,0.0916,-0.0366,-0.0177,-0.0152,0.0224,0.0764,-0.1048,-0.0006,0.0003,-0.0003,0.0000,4152138586,1749740678501053172,0.0224,0.0764,-0.1048,0.9990,0.0007,-0.0010,0.0458,0.0000,0.0000,0.0000,0.00000000,0.00000000,0.000,0.000,0.000,0.000,0.000,0,0,0.000,0.000,0.000,0.000,0.000,0,0,0,0,0,0,0,0.0000,0.0000,-0.0500,0.0000,0.0000,0.0400,-0.0997,0.1943,0.0000,0.0000,0.0000,0.0000,0.0000,0.0000,0.0000,0.0000,0.0000,0.0000,0.0000,0.0000,0.0000,0.0000,0.0000,0.0000,0.0000,0.0000,0.0000,0.0000,0.0000,0.0000,0.0000,0.0400,0.0000,0.0000,-0.0500,0.2361,0.2361,0.1748,0.1748,1,5,1749740678505496067,1749740678501473562,1749740678505550599,1749740678505538185,1749740678505562306,1749740678505564139,1749740678505888419,1749740678505894460,1749740678505928496,1749740678501471729,0
113,1749740678510932048,1749740678510493578,1749740678510493578,1749740678510937005,16.4075,560.8498,33.8100,0.1641,0.0469,0.0927,3.6091,1.1413,-6.7567,0.0000,0.0000,0.0000,0.0664,-0.1429,0.0916,0.0303,0.0038,0.0208,0.0224,0.0764,-0.1048,-0.0006,0.0003,-0.0003,0.0000,4152138586,1749740678501053172,0.0224,0.0764,-0.1048,0.9990,0.0007,-0.0010,0.0458,0.0000,0.0000,0.0000,0.00000000,0.00000000,0.000,0.000,0.000,0.000,0.000,0,0,0.000,0.000,0.000,0.000,0.000,0,0,0,0,0,0,0,0.0000,0.0000,-0.0500,0.0000,0.0000,0.0400,-0.0997,0.1943,0.0000,0.0000,0.0000,0.0000,0.0000,0.0000,0.0000,0.0000,0.0000,0.0000,0.0000,0.0000,0.0000,0.0000,0.0000,0.0000,0.0000,0.0000,0.0000,0.0000,0.0000,0.0000,0.0000,0.0400,0.0000,0.0000,-0.0500,0.2361,0.2361,0.1748,0.1748,1,5,1749740678510498244,1749740678505946701,1749740678510552735,1749740678510540195,1749740678510564025,1749740678510565816,1749740678510892387,1749740678510898470,1749740678510933214,1749740678505944868,0
114,1749740678516186059,1749740678515517585,1749740678515517585,1749740678516190724,16.4090,560.8498,33.8100,0.0415,-0.1161,-0.0000,-0.2682,-4.6344,-7.9114,0.0000,0.0000,0.0000,0.0665,-0.1431,0.0915,0.0340,-0.0362,0.0139,0.0223,0.0764,-0.1048,-0.0007,0.0002,-0.0002,0.0000,4152148206,1749740678515788915,0.0223,0.0764,-0.1048,0.9990,0.0007,-0.0010,0.0457,0.0000,0.0000,0.0000,0.00000000,0.00000000,0.000,0.000,0.000,0.000,0.000,0,0,0.000,0.000,0.000,0.000,0.000,0,0,0,0,0,0,0,0.0000,0.0000,-0.0500,0.0000,0.0000,0.0400,-0.0997,0.1943,0.0000,0.0000,0.0000,0.0000,0.0000,0.0000,0.0000,0.0000,0.0000,0.0000,0.0000,0.0000,0.0000,0.0000,0.0000,0.0000,0.0000,0.0000,0.0000,0.0000,0.0000,0.0000,0.0000,0.0400,0.0000,0.0000,-0.0500,0.2361,0.2361,0.1748,0.1748,1,5,1749740678515522293,1749740678510952086,1749740678515812537,1749740678515797122,1749740678515823743,1749740678515825534,1749740678516146732,1749740678516152689,1749740678516187225,1749740678510950253,0
115,1749740678520986769,1749740678520511347,1749740678520511347,1749740678520991476,16.4100,560.8498,33.8100,-0.1353,0.0288,-0.0522,-3.5205,3.6152,-8.4363,0.0000,0.0000,0.0000,0.0663,-0.1428,0.0915,-0.0224,-0.0145,-0.0082,0.0223,0.0764,-0.1048,-0.0007,0.0002,-0.0002,0.0000,4152148206,1749740678515788915,0.0223,0.0764,-0.1048,0.9990,0.0007,-0.0010,0.0457,0.0000,0.0000,0.0000,0.00000000,0.00000000,0.000,0.000,0.000,0.000,0.000,0,0,0.000,0.000,0.000,0.000,0.000,0,0,0,0,0,0,0,0.0000,0.0000,-0.0500,0.0000,0.0000,0.0400,-0.0997,0.1943,0.0000,0.0000,0.0000,0.0000,0.0000,0.0000,0.0000,0.0000,0.0000,0.0000,0.0000,0.0000,0.0000,0.0000,0.0000,0.0000,0.0000,0.0000,0.0000,0.0000,0.0000,0.0000,0.0000,0.0400,0.0000,0.0000,-0.0500,0.2361,0.2361,0.1748,0.1748,1,5,1749740678520515805,1749740678516205597,1749740678520609456,1749740678520596333,1749740678520621287,1749740678520622995,1749740678520946567,1749740678520952858,1749740678520987977,1749740678516203681,0
116,1749740678526194621,1749740678525550310,1749740678525550310,1749740678526199995,16.4119,560.8643,33.8100,0.1438,0.0138,0.0767,3.1972,1.0145,-6.0624,0.0000,0.0000,0.0000,0.0665,-0.1430,0.0917,0.0330,-0.0051,0.0201,0.0224,0.0763,-0.1047,-0.0001,-0.0001,0.0000,0.0000,4152155398,1749740678525710075,0.0224,0.0763,-0.1047,0.9989,0.0007,-0.0011,0.0458,0.0000,0.0000,0.0000,0.00000000,0.00000000,0.000,0.000,0.000,0.000,0.000,0,0,0.000,0.000,0.000,0.000,0.000,0,0,0,0,0,0,0,0.0000,0.0000,-0.0500,0.0000,0.0000,0.0400,-0.0997,0.1943,0.0000,0.0000,0.0000,0.0000,0.0000,0.0000,0.0000,0.0000,0.0000,0.0000,0.0000,0.0000,0.0000,0.0000,0.0000,0.0000,0.0000,0.0000,0.0000,0.0000,0.0000,0.0000,0.0000,0.0400,0.0000,0.0000,-0.0500,0.2361,0.2361,0.1748,0.1748,1,5,1749740678525554768,1749740678521638412,1749740678525735446,1749740678525717991,1749740678525747069,1749740678525748819,1749740678526068933,1749740678526074932,1749740678526196162,1749740678521004849,0
117,1749740678531364354,1749740678530857812,1749740678530857812,1749740678531369520,16.4126,560.8643,33.8100,0.0128,-0.0831,-0.0245,-1.3411,-5.3761,-8.8872,0.0000,0.0000,0.0000,0.0665,-0.1430,0.0917,0.0263,-0.0311,0.0053,0.0224,0.0763,-0.1047,-0.0001,-0.0001,0.0000,0.0000,4152155398,1749740678525710075,0.0224,0.0763,-0.1047,0.9989,0.0007,-0.0011,0.0458,0.0000,0.0000,0.0000,0.00000000,0.00000000,0.000,0.000,0.000,0.000,0.000,0,0,0.000,0.000,0.000,0.000,0.000,0,0,0,0,0,0,0,0.0000,0.0000,-0.0500,0.0000,0.0000,0.0400,-0.0997,0.1943,0.0000,0.0000,0.0000,0.0000,0.0000,0.0000,0.0000,0.0000,0.0000,0.0000,0.0000,0.0000,0.0000,0.0000,0.0000,0.0000,0.0000,0.0000,0.0000,0.0000,0.0000,0.0000,0.0000,0.0400,0.0000,0.0000,-0.0500,0.2361,0.2361,0.1748,0.1748,1,5,1749740678530862228,1749740678526214742,1749740678530987999,1749740678530975584,1749740678530999205,1749740678531001455,1749740678531324444,1749740678531330776,1749740678531365562,1749740678526212993,0
118,1749740678535650149,1749740678535150023,1749740678535150023,1749740678535654898,16.4131,560.8643,33.8100,-0.0831,0.0352,-0.0234,-2.3686,4.5387,-6.7352,0.0000,0.0000,0.0000,0.0666,-0.1428,0.0915,-0.0102,-0.0090,-0.0043,0.0224,0.0764,-0.1048,-0.0005,0.0003,-0.0002,0.0000,4152163633,1749740678535253631,0.0224,0.0764,-0.1048,0.9990,0.0007,-0.0012,0.0457,0.0000,0.0000,0.0000,0.00000000,0.00000000,0.000,0.000,0.000,0.000,0.000,0,0,0.000,0.000,0.000,0.000,0.000,0,0,0,0,0,0,0,0.0000,0.0000,-0.0500,0.0000,0.0000,0.0400,-0.0997,0.1943,0.0000,0.0000,0.0000,0.0000,0.0000,0.0000,0.0000,0.0000,0.0000,0.0000,0.0000,0.0000,0.0000,0.0000,0.0000,0.0000,0.0000,0.0000,0.0000,0.0000,0.0000,0.0000,0.0000,0.0400,0.0000,0.0000,-0.0500,0.2361,0.2361,0.1748,0.1748,1,5,1749740678535152314,1749740678531384101,1749740678535276835,1749740678535261504,1749740678535288333,1749740678535290083,1749740678535612113,1749740678535617946,1749740678535651357,1749740678531382184,0
119,1749740678541111459,1749740678540517807,1749740678540517807,1749740678541116666,16.4145,560.8643,33.8100,0.1683,-0.0320,0.0831,2.4620,-0.7393,-5.1462,0.0000,0.0000,0.0000,0.0669,-0.1431,0.0916,0.0493,-0.0167,0.0248,0.0224,0.0763,-0.1047,0.0007,-0.0005,0.0004,0.0000,4152172301,1749740678540707817,0.0224,0.0763,-0.1047,0.9990,0.0009,-0.0012,0.0458,0.0000,0.0000,0.0000,0.00000000,0.00000000,0.000,0.000,0.000,0.000,0.000,0,0,0.000,0.000,0.000,0.000,0.000,0,0,0,0,0,0,0,0.0000,0.0000,-0.0500,0.0000,0.0000,0.0400,-0.0997,0.1943,0.0000,0.0000,0.0000,0.0000,0.0000,0.0000,0.0000,0.0000,0.0000,0.0000,0.0000,0.0000,0.0000,0.0000,0.0000,0.0000,0.0000,0.0000,0.0000,0.0000,0.0000,0.0000,0.0000,0.0400,0.0000,0.0000,-0.0500,0.2361,0.2361,0.1748,0.1748,1,5,1749740678540522264,1749740678535669771,1749740678540733146,1749740678540715816,1749740678540744853,1749740678540746602,1749740678541071299,1749740678541077548,1749740678541112667,1749740678535667813,0
120,1749740678545603429,1749740678545169125,1749740678545169125,1749740678545608094,16.4158,560.8643,33.8100,-0.0288,-0.0660,-0.0586,-2.4021,-2.8950,-8.9063,0.0000,0.0000,0.0000,0.0668,-0.1431,0.0916,0.0233,-0.0331,-0.0030,0.0224,0.0763,-0.1047,0.0007,-0.0005,0.0004,0.0000,4152172301,1749740678540707817,0.0224,0.0763,-0.1047,0.9990,0.0009,-0.0012,0.0458,0.0000,0.0000,0.0000,0.00000000,0.00000000,0.000,0.000,0.000,0.000,0.000,0,0,0.000,0.000,0.000,0.000,0.000,0,0,0,0,0,0,0,0.0000,0.0000,-0.0500,0.0000,0.0000,0.0400,-0.0997,0.1943,0.0000,0.0000,0.0000,0.0000,0.0000,0.0000,0.0000,0.0000,0.0000,0.0000,0.0000,0.0000,0.0000,0.0000,0.0000,0.0000,0.0000,0.0000,0.0000,0.0000,0.0000,0.0000,0.0000,0.0400,0.0000,0.0000,-0.0500,0.2361,0.2361,0.1748,0.1748,1,5,1749740678545173999,1749740678541131539,1749740678545228407,1749740678545215492,1749740678545239780,1749740678545241905,1749740678545563643,1749740678545569601,1749740678545604595,1749740678541129248,0
121,1749740678551335069,1749740678550743291,1749740678550743291,1749740678551339985,16.4179,560.8643,33.8100,-0.0682,0.0607,-0.0117,-0.4838,4.9479,-5.8501,0.0000,0.0000,0.0000,0.0667,-0.1429,0.0917,-0.0072,-0.0018,-0.0059,0.0223,0.0764,-0.1048,-0.0001,0.0001,-0.0001,0.0000,4152181650,1749740678550933135,0.0223,0.0764,-0.1048,0.9990,0.0006,-0.0012,0.0458,0.0000,0.0000,0.0000,0.00000000,0.00000000,0.000,0.000,0.000,0.000,0.000,0,0,0.000,0.000,0.000,0.000,0.000,0,0,0,0,0,0,0,0.0000,0.0000,-0.0500,0.0000,0.0000,0.0400,-0.0997,0.1943,0.0000,0.0000,0.0000,0.0000,0.0000,0.0000,0.0000,0.0000,0.0000,0.0000,0.0000,0.0000,0.0000,0.0000,0.0000,0.0000,0.0000,0.0000,0.0000,0.0000,0.0000,0.0000,0.0000,0.0400,0.0000,0.0000,-0.0500,0.2361,0.2361,0.1748,0.1748,1,5,1749740678550748124,1749740678545623134,1749740678550958589,1749740678550941009,1749740678550970462,1749740678550972212,1749740678551295909,1749740678551301991,1749740678551336236,1749740678545621259,0
122,1749740678555957184,1749740678555482595,1749740678555482595,1749740678555962141,16.4191,560.8643,33.8100,0.1747,-0.0511,0.1001,1.6788,-0.7297,-6.4322,0.0000,0.0000,0.0000,0.0670,-0.1432,0.0917,0.0534,-0.0183,0.0294,0.0223,0.0764,-0.1048,-0.0001,0.0001,-0.0001,0.0000,4152181650,1749740678550933135,0.0223,0.0764,-0.1048,0.9990,0.0006,-0.0012,0.0458,0.0000,0.0000,0.0000,0.00000000,0.00000000,0.000,0.000,0.000,0.000,0.000,0,0,0.000,0.000,0.000,0.000,0.000,0,0,0,0,0,0,0,0.0000,0.0000,-0.0500,0.0000,0.0000,0.0400,-0.0997,0.1943,0.0000,0.0000,0.0000,0.0000,0.0000,0.0000,0.0000,0.0000,0.0000,0.0000,0.0000,0.0000,0.0000,0.0000,0.0000,0.0000,0.0000,0.0000,0.0000,0.0000,0.0000,0.0000,0.0000,0.0400,0.0000,0.0000,-0.0500,0.2361,0.2361,0.1748,0.1748,1,5,1749740678555487053,1749740678551354774,1749740678555580371,1749740678555567331,1749740678555591536,1749740678555593327,1749740678555917524,1749740678555923564,1749740678555958392,1749740678551352691,0
123,1749740678560455319,1749740678559904576,1749740678559904576,1749740678560459985,16.4201,560.8643,33.8100,-0.1012,-0.0959,-0.0820,-3.2451,-3.4932,-10.2877,0.0000,0.0000,0.0000,0.0666,-0.1434,0.0915,0.0019,-0.0441,-0.0077,0.0224,0.0763,-0.1047,0.0004,-0.0004,0.0005,0.0000,4152188989,1749740678560055926,0.0224,0.0763,-0.1047,0.9990,0.0008,-0.0011,0.0457,0.0000,0.0000,0.0000,0.00000000,0.00000000,0.000,0.000,0.000,0.000,0.000,0,0,0.000,0.000,0.000,0.000,0.000,0,0,0,0,0,0,0,0.0000,0.0000,-0.0500,0.0000,0.0000,0.0400,-0.0997,0.1943,0.0000,0.0000,0.0000,0.0000,0.0000,0.0000,0.0000,0.0000,0.0000,0.0000,0.0000,0.0000,0.0000,0.0000,0.0000,0.0000,0.0000,0.0000,0.0000,0.0000,0.0000,0.0000,0.0000,0.0400,0.0000,0.0000,-0.0500,0.2361,0.2361,0.1748,0.1748,1,5,1749740678559908617,1749740678555976347,1749740678560080256,1749740678560063842,1749740678560091962,1749740678560093712,1749740678560415784,1749740678560422783,1749740678560456486,1749740678555974514,0
124,1749740678566348891,1749740678565631676,1749740678565631676,1749740678566353849,16.4208,560.8643,33.8100,-0.0245,0.0959,-0.0160,-0.5436,4.8330,-8.3671,0.0000,0.0000,0.0000,0.0668,-0.1430,0.0916,-0.0069,0.0025,-0.0105,0.0224,0.0764,-0.1048,0.0002,0.0001,-0.0003,0.0000,4152197621,1749740678565903465,0.0224,0.0764,-0.1048,0.9990,0.0007,-0.0011,0.0458,0.0000,0.0000,0.0000,0.00000000,0.00000000,0.000,0.000,0.000,0.000,0.000,0,0,0.000,0.000,0.000,0.000,0.000,0,0,0,0,0,0,0,0.0000,0.0000,-0.0500,0.0000,0.0000,0.0400,-0.0997,0.1943,0.0000,0.0000,0.0000,0.0000,0.0000,0.0000,0.0000,0.0000,0.0000,0.0000,0.0000,0.0000,0.0000,0.0000,0.0000,0.0000,0.0000,0.0000,0.0000,0.0000,0.0000,0.0000,0.0000,0.0400,0.0000,0.0000,-0.0500,0.2361,0.2361,0.1748,0.1748,1,5,1749740678565636384,1749740678560475233,1749740678565926753,1749740678565911463,1749740678565938417,1749740678565940167,1749740678566309231,1749740678566315689,1749740678566350308,1749740678560473108,0
