loop_index,last_step_ns,imu_time_ns,bmp_time_ns,epoch_time_ns,v_batt,alt_bmp_raw,bmp_temp,gyro_roll,gyro_pitch,gyro_yaw,accel_X,accel_Y,accel_Z,mag_X, mag_Y, mag_Z,roll,pitch,yaw,rollDot,pitchDot,yawDot,X,Y,Z,Xdot,Ydot,Zdot,Zddot,xbee_time,xbee_time_received_ns,xbee_x,xbee_y,xbee_z,xbee_qw,xbee_qx,xbee_qy,xbee_qz,xbee_roll,xbee_pitch,xbee_yaw,gps_lat,gps_lon,gps_gpsAlt,gps_ned_x,gps_ned_y,gps_ned_z,gps_spd,gps_fix,gps_sat,gps_headingNc,gps_cog,gps_gpsVsi,gps_hdop,gps_vdop,gps_year,gps_month,gps_day,gps_hour,gps_minute,gps_second,gps_time_received_ns,X_thrt,Y_thrt,Z_thrt,roll_thrt,pitch_thrt,yaw_thrt,sp_roll_dot,sp_pitch_dot,sp_yaw_dot,sp_roll_dot_ff,sp_pitch_dot_ff,sp_yaw_dot_ff,sp_roll,sp_pitch,sp_yaw,sp_roll_ff,sp_pitch_ff,sp_X,sp_Y,sp_Z,sp_Xdot,sp_Ydot,sp_Zdot,sp_Xdot_ff,sp_Ydot_ff,sp_Zdot_ff,sp_Xddot,sp_Yddot,sp_Zddot,u_roll,u_pitch,u_yaw,u_X,u_Y,u_Z,mot_1,mot_2,mot_3,mot_4,dsm_con,flight_mode,tIMU,tIMU_END,tSM,tXBEE,tGPS,tPNI,tNAV,tGUI,tCTR,tLOG,tNTP
1,1749741145548952846,1749741145547200973,1749741145547200973,1749741145548957429,16.3420,561.6354,33.9200,0.0128,-0.0149,0.0075,-0.4981,0.0837,-9.4980,0.0000,0.0000,0.0000,0.0601,-0.1288,0.0186,0.0124,-0.0148,0.0071,-0.0591,-1.7883,-0.1011,0.0001,-0.0001,0.0001,0.0000,324234494,1749741145547477001,-0.0591,-1.7883,-0.1011,0.9999,0.0057,-0.0019,0.0093,0.0000,0.0000,0.0000,0.00000000,0.00000000,0.000,0.000,0.000,0.000,0.000,0,0,0.000,0.000,0.000,0.000,0.000,0,0,0,0,0,0,0,0.0000,0.0000,-0.0500,0.0000,0.0000,0.0000,0.0000,0.0000,0.0000,0.0000,0.0000,0.0000,0.0000,0.0000,0.0000,0.0000,0.0000,0.0000,0.0000,0.0000,0.0000,0.0000,0.0000,0.0000,0.0000,0.0000,0.0000,0.0000,0.0000,0.0000,0.0000,0.0000,0.0000,0.0000,-0.0500,0.2072,0.2072,0.2072,0.2072,1,5,1749741145547205848,1749741145542787023,1749741145547502167,1749741145547485126,1749741145547513000,1749741145547514958,1749741145547826068,1749741145548920180,1749741145548954012,1749741145542785190,0
2,1749741145552962690,1749741145552526712,1749741145552526712,1749741145552967773,16.3418,561.6354,33.9200,0.0107,-0.0128,0.0043,-0.4862,0.0598,-9.5409,0.0000,0.0000,0.0000,0.0601,-0.1287,0.0186,0.0118,-0.0141,0.0062,-0.0591,-1.7883,-0.1011,0.0001,-0.0001,0.0001,0.0000,324234494,1749741145547477001,-0.0591,-1.7883,-0.1011,0.9999,0.0057,-0.0019,0.0093,0.0000,0.0000,0.0000,0.00000000,0.00000000,0.000,0.000,0.000,0.000,0.000,0,0,0.000,0.000,0.000,0.000,0.000,0,0,0,0,0,0,0,0.0000,0.0000,-0.0500,0.0000,0.0000,0.0000,0.0000,0.0000,0.0000,0.0000,0.0000,0.0000,0.0000,0.0000,0.0000,0.0000,0.0000,0.0000,0.0000,0.0000,0.0000,0.0000,0.0000,0.0000,0.0000,0.0000,0.0000,0.0000,0.0000,0.0000,0.0000,0.0000,0.0000,0.0000,-0.0500,0.2072,0.2072,0.2072,0.2072,1,5,1749741145552531545,1749741145548971970,1749741145552586334,1749741145552572959,1749741145552596958,1749741145552598583,1749741145552923234,1749741145552928858,1749741145552963898,1749741145548970220,0
3,1749741145558302636,1749741145557641210,1749741145557641210,1749741145558307719,16.3415,561.6354,33.9200,0.0128,-0.0138,0.0043,-0.4622,0.0933,-9.5004,0.0000,0.0000,0.0000,0.0601,-0.1287,0.0186,0.0122,-0.0140,0.0055,-0.0591,-1.7882,-0.1011,0.0001,0.0000,0.0000,0.0000,324242842,1749741145557831701,-0.0591,-1.7882,-0.1011,0.9999,0.0057,-0.0019,0.0093,0.0000,0.0000,0.0000,0.00000000,0.00000000,0.000,0.000,0.000,0.000,0.000,0,0,0.000,0.000,0.000,0.000,0.000,0,0,0,0,0,0,0,0.0000,0.0000,-0.0500,0.0000,0.0000,0.0000,0.0000,0.0000,0.0000,0.0000,0.0000,0.0000,0.0000,0.0000,0.0000,0.0000,0.0000,0.0000,0.0000,0.0000,0.0000,0.0000,0.0000,0.0000,0.0000,0.0000,0.0000,0.0000,0.0000,0.0000,0.0000,0.0000,0.0000,0.0000,-0.0500,0.2072,0.2072,0.2072,0.2072,1,5,1749741145557645668,1749741145552982023,1749741145557857533,1749741145557839909,1749741145557869366,1749741145557871157,1749741145558263346,1749741145558269138,1749741145558303844,1749741145552979939,0
4,1749741145563189813,1749741145562522095,1749741145562522095,1749741145563194479,16.3418,561.6354,33.9200,0.0117,-0.0138,0.0064,-0.4550,0.1220,-9.4407,0.0000,0.0000,0.0000,0.0601,-0.1287,0.0186,0.0120,-0.0140,0.0058,-0.0591,-1.7883,-0.1011,0.0000,-0.0001,0.0002,0.0000,324251397,1749741145562794082,-0.0591,-1.7883,-0.1011,0.9999,0.0057,-0.0019,0.0093,0.0000,0.0000,0.0000,0.00000000,0.00000000,0.000,0.000,0.000,0.000,0.000,0,0,0.000,0.000,0.000,0.000,0.000,0,0,0,0,0,0,0,0.0000,0.0000,-0.0500,0.0000,0.0000,0.0000,0.0000,0.0000,0.0000,0.0000,0.0000,0.0000,0.0000,0.0000,0.0000,0.0000,0.0000,0.0000,0.0000,0.0000,0.0000,0.0000,0.0000,0.0000,0.0000,0.0000,0.0000,0.0000,0.0000,0.0000,0.0000,0.0000,0.0000,0.0000,-0.0500,0.2072,0.2072,0.2072,0.2072,1,5,1749741145562526512,1749741145558322385,1749741145562817706,1749741145562802207,1749741145562828414,1749741145562830164,1749741145563150731,1749741145563156398,1749741145563190979,1749741145558320510,0
5,1749741145567717424,1749741145567266946,1749741145567266946,1749741145567722132,16.3415,561.6354,33.9200,0.0107,-0.0170,0.0075,-0.5149,0.0574,-9.4694,0.0000,0.0000,0.0000,0.0601,-0.1288,0.0186,0.0116,-0.0150,0.0064,-0.0591,-1.7883,-0.1011,0.0000,-0.0001,0.0002,0.0000,324251397,1749741145562794082,-0.0591,-1.7883,-0.1011,0.9999,0.0057,-0.0019,0.0093,0.0000,0.0000,0.0000,0.00000000,0.00000000,0.000,0.000,0.000,0.000,0.000,0,0,0.000,0.000,0.000,0.000,0.000,0,0,0,0,0,0,0,0.0000,0.0000,-0.0500,0.0000,0.0000,0.0000,0.0000,0.0000,0.0000,0.0000,0.0000,0.0000,0.0000,0.0000,0.0000,0.0000,0.0000,0.0000,0.0000,0.0000,0.0000,0.0000,0.0000,0.0000,0.0000,0.0000,0.0000,0.0000,0.0000,0.0000,0.0000,0.0000,0.0000,0.0000,-0.0500,0.2072,0.2072,0.2072,0.2072,1,5,1749741145567271904,1749741145563208603,1749741145567322860,1749741145567309777,1749741145567333526,1749741145567335151,1749741145567678175,1749741145567684175,1749741145567718590,1749741145563206562,0
6,1749741145572851380,1749741145572260367,1749741145572260367,1749741145572856129,16.3360,561.6354,33.9200,0.0117,-0.0160,0.0075,-0.4862,0.0646,-9.4598,0.0000,0.0000,0.0000,0.0601,-0.1288,0.0188,0.0116,-0.0153,0.0067,-0.0590,-1.7882,-0.1011,0.0004,0.0000,0.0001,0.0000,324259441,1749741145572452066,-0.0590,-1.7882,-0.1011,0.9999,0.0058,-0.0019,0.0094,0.0000,0.0000,0.0000,0.00000000,0.00000000,0.000,0.000,0.000,0.000,0.000,0,0,0.000,0.000,0.000,0.000,0.000,0,0,0,0,0,0,0,0.0000,0.0000,-0.0500,0.0000,0.0000,0.0000,0.0000,0.0000,0.0000,0.0000,0.0000,0.0000,0.0000,0.0000,0.0000,0.0000,0.0000,0.0000,0.0000,0.0000,0.0000,0.0000,0.0000,0.0000,0.0000,0.0000,0.0000,0.0000,0.0000,0.0000,0.0000,0.0000,0.0000,0.0000,-0.0500,0.2072,0.2072,0.2072,0.2072,1,5,1749741145572264825,1749741145567737131,1749741145572477731,1749741145572460149,1749741145572489606,1749741145572491356,1749741145572812048,1749741145572817715,1749741145572852588,1749741145567735214,0
7,1749741145577355242,1749741145576945928,1749741145576945928,1749741145577359908,16.3282,561.6354,33.9200,0.0085,-0.0128,0.0032,-0.0599,0.4331,-9.2379,0.0000,0.0000,0.0000,0.0601,-0.1288,0.0188,0.0106,-0.0145,0.0056,-0.0590,-1.7882,-0.1011,0.0004,0.0000,0.0001,0.0000,324259441,1749741145572452066,-0.0590,-1.7882,-0.1011,0.9999,0.0058,-0.0019,0.0094,0.0000,0.0000,0.0000,0.00000000,0.00000000,0.000,0.000,0.000,0.000,0.000,0,0,0.000,0.000,0.000,0.000,0.000,0,0,0,0,0,0,0,0.0000,0.0000,-0.0500,0.0000,0.0000,0.0000,0.0000,0.0000,0.0000,0.0000,0.0000,0.0000,0.0000,0.0000,0.0000,0.0000,0.0000,0.0000,0.0000,0.0000,0.0000,0.0000,0.0000,0.0000,0.0000,0.0000,0.0000,0.0000,0.0000,0.0000,0.0000,0.0000,0.0000,0.0000,-0.0500,0.2072,0.2072,0.2072,0.2072,1,5,1749741145576948928,1749741145572870462,1749741145576985468,1749741145576972219,1749741145576996259,1749741145576998009,1749741145577317410,1749741145577323118,1749741145577356408,1749741145572868587,0
8,1749741145582986840,1749741145582394994,1749741145582394994,1749741145582991506,16.3212,561.6354,33.9200,0.0277,-0.0149,0.0128,-1.0729,0.6269,-8.4625,0.0000,0.0000,0.0000,0.0601,-0.1287,0.0186,0.0163,-0.0146,0.0080,-0.0591,-1.7882,-0.1011,0.0000,-0.0000,0.0002,0.0000,324267419,1749741145582586110,-0.0591,-1.7882,-0.1011,0.9999,0.0057,-0.0019,0.0093,0.0000,0.0000,0.0000,0.00000000,0.00000000,0.000,0.000,0.000,0.000,0.000,0,0,0.000,0.000,0.000,0.000,0.000,0,0,0,0,0,0,0,0.0000,0.0000,-0.0500,0.0000,0.0000,0.0000,0.0000,0.0000,0.0000,0.0000,0.0000,0.0000,0.0000,0.0000,0.0000,0.0000,0.0000,0.0000,0.0000,0.0000,0.0000,0.0000,0.0000,0.0000,0.0000,0.0000,0.0000,0.0000,0.0000,0.0000,0.0000,0.0000,0.0000,0.0000,-0.0500,0.2072,0.2072,0.2072,0.2072,1,5,1749741145582399369,1749741145577375991,1749741145582612358,1749741145582594359,1749741145582624316,1749741145582626108,1749741145582947342,1749741145582953425,1749741145582988048,1749741145577373866,0
9,1749741145587738690,1749741145587151885,1749741145587151885,1749741145587743356,16.3094,561.7230,33.9200,0.0128,-0.0213,0.0107,-0.9819,0.5694,-8.6081,0.0000,0.0000,0.0000,0.0601,-0.1288,0.0186,0.0151,-0.0169,0.0089,-0.0591,-1.7882,-0.1011,0.0000,-0.0001,0.0001,0.0000,324276112,1749741145587338043,-0.0591,-1.7882,-0.1011,0.9999,0.0057,-0.0019,0.0093,0.0000,0.0000,0.0000,0.00000000,0.00000000,0.000,0.000,0.000,0.000,0.000,0,0,0.000,0.000,0.000,0.000,0.000,0,0,0,0,0,0,0,0.0000,0.0000,-0.0500,0.0000,0.0000,0.0000,0.0000,0.0000,0.0000,0.0000,0.0000,0.0000,0.0000,0.0000,0.0000,0.0000,0.0000,0.0000,0.0000,0.0000,0.0000,0.0000,0.0000,0.0000,0.0000,0.0000,0.0000,0.0000,0.0000,0.0000,0.0000,0.0000,0.0000,0.0000,-0.0500,0.2072,0.2072,0.2072,0.2072,1,5,1749741145587156385,1749741145583379904,1749741145587363791,1749741145587346542,1749741145587375249,1749741145587377041,1749741145587698692,1749741145587704858,1749741145587739856,1749741145583005297,0
10,1749741145593092385,1749741145592657281,1749741145592657281,1749741145593097426,16.2978,561.7230,33.9200,0.0011,-0.0096,0.0149,-0.5197,0.5670,-7.7611,0.0000,0.0000,0.0000,0.0600,-0.1289,0.0186,0.0104,-0.0144,0.0109,-0.0591,-1.7882,-0.1011,0.0000,-0.0001,0.0001,0.0000,324276112,1749741145587338043,-0.0591,-1.7882,-0.1011,0.9999,0.0057,-0.0019,0.0093,0.0000,0.0000,0.0000,0.00000000,0.00000000,0.000,0.000,0.000,0.000,0.000,0,0,0.000,0.000,0.000,0.000,0.000,0,0,0,0,0,0,0,0.0000,0.0000,-0.0500,0.0000,0.0000,0.0000,0.0000,0.0000,0.0000,0.0000,0.0000,0.0000,0.0000,0.0000,0.0000,0.0000,0.0000,0.0000,0.0000,0.0000,0.0000,0.0000,0.0000,0.0000,0.0000,0.0000,0.0000,0.0000,0.0000,0.0000,0.0000,0.0000,0.0000,0.0000,-0.0500,0.2072,0.2072,0.2072,0.2072,1,5,1749741145592662198,1749741145587757897,1749741145592716695,1749741145592703362,1749741145592727528,1749741145592729236,1749741145593052512,1749741145593058720,1749741145593093593,1749741145587755981,0
11,1749741145597550666,1749741145596925905,1749741145596925905,1749741145597555374,16.2792,561.7230,33.9200,0.0415,-0.0064,-0.0075,-0.9125,0.5288,-8.2741,0.0000,0.0000,0.0000,0.0601,-0.1289,0.0187,0.0208,-0.0118,0.0048,-0.0590,-1.7882,-0.1011,0.0003,-0.0000,0.0002,0.0000,324284075,1749741145597117271,-0.0590,-1.7882,-0.1011,0.9999,0.0058,-0.0019,0.0094,0.0000,0.0000,0.0000,0.00000000,0.00000000,0.000,0.000,0.000,0.000,0.000,0,0,0.000,0.000,0.000,0.000,0.000,0,0,0,0,0,0,0,0.0000,0.0000,-0.0500,0.0000,0.0000,0.0000,0.0000,0.0000,0.0000,0.0000,0.0000,0.0000,0.0000,0.0000,0.0000,0.0000,0.0000,0.0000,0.0000,0.0000,0.0000,0.0000,0.0000,0.0000,0.0000,0.0000,0.0000,0.0000,0.0000,0.0000,0.0000,0.0000,0.0000,0.0000,-0.0500,0.2072,0.2072,0.2072,0.2072,1,5,1749741145596930321,1749741145593112342,1749741145597143186,1749741145597125604,1749741145597154977,1749741145597156727,1749741145597512085,1749741145597517043,1749741145597551874,1749741145593110009,0
12,1749741145602740869,1749741145602304516,1749741145602304516,1749741145602745577,16.2603,561.7230,33.9200,0.0064,-0.0288,0.0021,-1.9854,0.9522,-8.7441,0.0000,0.0000,0.0000,0.0600,-0.1290,0.0187,0.0160,-0.0174,0.0039,-0.0590,-1.7882,-0.1011,0.0003,-0.0000,0.0002,0.0000,324284075,1749741145597117271,-0.0590,-1.7882,-0.1011,0.9999,0.0058,-0.0019,0.0094,0.0000,0.0000,0.0000,0.00000000,0.00000000,0.000,0.000,0.000,0.000,0.000,0,0,0.000,0.000,0.000,0.000,0.000,0,0,0,0,0,0,0,0.0000,0.0000,-0.0500,0.0000,0.0000,0.0000,0.0000,0.0000,0.0000,0.0000,0.0000,0.0000,0.0000,0.0000,0.0000,0.0000,0.0000,0.0000,0.0000,0.0000,0.0000,0.0000,0.0000,0.0000,0.0000,0.0000,0.0000,0.0000,0.0000,0.0000,0.0000,0.0000,0.0000,0.0000,-0.0500,0.2072,0.2072,0.2072,0.2072,1,5,1749741145602309349,1749741145597570040,1749741145602363221,1749741145602349847,1749741145602374137,1749741145602375804,1749741145602701330,1749741145602707163,1749741145602742078,1749741145597568082,0
13,1749741145607913240,1749741145607320769,1749741145607320769,1749741145607918240,16.2480,561.7230,33.9200,-0.0245,-0.0362,-0.0011,-0.9699,1.4068,-9.1735,0.0000,0.0000,0.0000,0.0598,-0.1293,0.0188,0.0025,-0.0237,0.0022,-0.0590,-1.7882,-0.1011,0.0003,-0.0000,0.0001,0.0000,324292398,1749741145607512426,-0.0590,-1.7882,-0.1011,0.9999,0.0058,-0.0019,0.0094,0.0000,0.0000,0.0000,0.00000000,0.00000000,0.000,0.000,0.000,0.000,0.000,0,0,0.000,0.000,0.000,0.000,0.000,0,0,0,0,0,0,0,0.0000,0.0000,-0.0500,0.0000,0.0000,0.0000,0.0000,0.0000,0.0000,0.0000,0.0000,0.0000,0.0000,0.0000,0.0000,0.0000,0.0000,0.0000,0.0000,0.0000,0.0000,0.0000,0.0000,0.0000,0.0000,0.0000,0.0000,0.0000,0.0000,0.0000,0.0000,0.0000,0.0000,0.0000,-0.0500,0.2072,0.2072,0.2072,0.2072,1,5,1749741145607325644,1749741145602759993,1749741145607538842,1749741145607520634,1749741145607550383,1749741145607552133,1749741145607873575,1749741145607879658,1749741145607914407,1749741145602758118,0
14,1749741145612604135,1749741145612012372,1749741145612012372,1749741145612608801,16.2381,561.7230,33.9200,0.0128,0.0447,-0.0394,-0.7712,0.6340,-9.3668,0.0000,0.0000,0.0000,0.0597,-0.1290,0.0186,0.0059,-0.0009,-0.0116,-0.0591,-1.7883,-0.1011,-0.0005,-0.0003,0.0001,0.0000,324300404,1749741145612203571,-0.0591,-1.7883,-0.1011,0.9999,0.0057,-0.0019,0.0093,0.0000,0.0000,0.0000,0.00000000,0.00000000,0.000,0.000,0.000,0.000,0.000,0,0,0.000,0.000,0.000,0.000,0.000,0,0,0,0,0,0,0,0.0000,0.0000,-0.0500,0.0000,0.0000,0.0000,0.0000,0.0000,0.0000,0.0000,0.0000,0.0000,0.0000,0.0000,0.0000,0.0000,0.0000,0.0000,0.0000,0.0000,0.0000,0.0000,0.0000,0.0000,0.0000,0.0000,0.0000,0.0000,0.0000,0.0000,0.0000,0.0000,0.0000,0.0000,-0.0500,0.2072,0.2072,0.2072,0.2072,1,5,1749741145612016872,1749741145607932531,1749741145612229528,1749741145612211904,1749741145612241402,1749741145612243194,1749741145612565012,1749741145612570678,1749741145612605343,1749741145607930614,0
15,1749741145617513727,1749741145617074915,1749741145617074915,1749741145617518810,16.2267,561.7230,33.9200,0.0373,-0.0181,-0.0202,-1.4944,-0.1914,-9.0184,0.0000,0.0000,0.0000,0.0598,-0.1290,0.0186,0.0164,-0.0066,-0.0145,-0.0591,-1.7883,-0.1011,-0.0005,-0.0003,0.0001,0.0000,324300404,1749741145612203571,-0.0591,-1.7883,-0.1011,0.9999,0.0057,-0.0019,0.0093,0.0000,0.0000,0.0000,0.00000000,0.00000000,0.000,0.000,0.000,0.000,0.000,0,0,0.000,0.000,0.000,0.000,0.000,0,0,0,0,0,0,0,0.0000,0.0000,-0.0500,0.0000,0.0000,0.0000,0.0000,0.0000,0.0000,0.0000,0.0000,0.0000,0.0000,0.0000,0.0000,0.0000,0.0000,0.0000,0.0000,0.0000,0.0000,0.0000,0.0000,0.0000,0.0000,0.0000,0.0000,0.0000,0.0000,0.0000,0.0000,0.0000,0.0000,0.0000,-0.0500,0.2072,0.2072,0.2072,0.2072,1,5,1749741145617079415,1749741145612623092,1749741145617134662,1749741145617121329,1749741145617145745,1749741145617147411,1749741145617474229,1749741145617480270,1749741145617514893,1749741145612621175,0
16,1749741145623095619,1749741145622503565,1749741145622503565,1749741145623100327,16.2185,561.7230,33.9200,0.0075,-0.0746,0.0884,-1.9183,-0.1244,-9.2451,0.0000,0.0000,0.0000,0.0597,-0.1295,0.0185,0.0134,-0.0293,0.0198,-0.0591,-1.7883,-0.1011,-0.0005,-0.0003,0.0000,0.0000,324309940,1749741145622695430,-0.0591,-1.7883,-0.1011,0.9999,0.0057,-0.0019,0.0093,0.0000,0.0000,0.0000,0.00000000,0.00000000,0.000,0.000,0.000,0.000,0.000,0,0,0.000,0.000,0.000,0.000,0.000,0,0,0,0,0,0,0,0.0000,0.0000,-0.0500,0.0000,0.0000,0.0000,0.0000,0.0000,0.0000,0.0000,0.0000,0.0000,0.0000,0.0000,0.0000,0.0000,0.0000,0.0000,0.0000,0.0000,0.0000,0.0000,0.0000,0.0000,0.0000,0.0000,0.0000,0.0000,0.0000,0.0000,0.0000,0.0000,0.0000,0.0000,-0.0500,0.2072,0.2072,0.2072,0.2072,1,5,1749741145622508023,1749741145617533351,1749741145622722137,1749741145622703972,1749741145622733554,1749741145622735720,1749741145623056829,1749741145623062454,1749741145623096827,1749741145617531518,0
17,1749741145627662853,1749741145627227458,1749741145627227458,1749741145627667519,16.2098,561.7230,33.9200,-0.0192,-0.0117,0.0565,-0.6227,1.0503,-9.4312,0.0000,0.0000,0.0000,0.0596,-0.1296,0.0185,0.0025,-0.0234,0.0320,-0.0591,-1.7883,-0.1011,-0.0005,-0.0003,0.0000,0.0000,324309940,1749741145622695430,-0.0591,-1.7883,-0.1011,0.9999,0.0057,-0.0019,0.0093,0.0000,0.0000,0.0000,0.00000000,0.00000000,0.000,0.000,0.000,0.000,0.000,0,0,0.000,0.000,0.000,0.000,0.000,0,0,0,0,0,0,0,0.0000,0.0000,-0.0500,0.0000,0.0000,0.0000,0.0000,0.0000,0.0000,0.0000,0.0000,0.0000,0.0000,0.0000,0.0000,0.0000,0.0000,0.0000,0.0000,0.0000,0.0000,0.0000,0.0000,0.0000,0.0000,0.0000,0.0000,0.0000,0.0000,0.0000,0.0000,0.0000,0.0000,0.0000,-0.0500,0.2072,0.2072,0.2072,0.2072,1,5,1749741145627232124,1749741145623114577,1749741145627287746,1749741145627274664,1749741145627298746,1749741145627300371,1749741145627622938,1749741145627629271,1749741145627664061,1749741145623112660,0
18,1749741145633029006,1749741145632370080,1749741145632370080,1749741145633033756,16.2025,561.7230,33.9200,0.0362,0.0437,-0.0000,-0.1365,0.7632,-9.7055,0.0000,0.0000,0.0000,0.0596,-0.1293,0.0186,0.0138,-0.0011,0.0213,-0.0591,-1.7882,-0.1011,-0.0005,-0.0000,-0.0000,0.0000,324318009,1749741145632561404,-0.0591,-1.7882,-0.1011,0.9999,0.0057,-0.0018,0.0093,0.0000,0.0000,0.0000,0.00000000,0.00000000,0.000,0.000,0.000,0.000,0.000,0,0,0.000,0.000,0.000,0.000,0.000,0,0,0,0,0,0,0,0.0000,0.0000,-0.0500,0.0000,0.0000,0.0000,0.0000,0.0000,0.0000,0.0000,0.0000,0.0000,0.0000,0.0000,0.0000,0.0000,0.0000,0.0000,0.0000,0.0000,0.0000,0.0000,0.0000,0.0000,0.0000,0.0000,0.0000,0.0000,0.0000,0.0000,0.0000,0.0000,0.0000,0.0000,-0.0500,0.2072,0.2072,0.2072,0.2072,1,5,1749741145632374538,1749741145627682060,1749741145632587736,1749741145632569695,1749741145632599069,1749741145632601235,1749741145632989883,1749741145632995883,1749741145633030214,1749741145627680227,0
19,1749741145637402166,1749741145636846902,1749741145636846902,1749741145637406583,16.1941,561.6066,33.9200,0.0394,-0.0096,0.0618,-0.5628,-1.3662,-10.9820,0.0000,0.0000,0.0000,0.0596,-0.1293,0.0186,0.0223,-0.0039,0.0348,-0.0590,-1.7882,-0.1011,0.0007,0.0001,0.0002,0.0000,324325903,1749741145637076682,-0.0590,-1.7882,-0.1011,0.9999,0.0058,-0.0019,0.0093,0.0000,0.0000,0.0000,0.00000000,0.00000000,0.000,0.000,0.000,0.000,0.000,0,0,0.000,0.000,0.000,0.000,0.000,0,0,0,0,0,0,0,0.0000,0.0000,-0.0500,0.0000,0.0000,0.0000,0.0000,0.0000,0.0000,0.0000,0.0000,0.0000,0.0000,0.0000,0.0000,0.0000,0.0000,0.0000,0.0000,0.0000,0.0000,0.0000,0.0000,0.0000,0.0000,0.0000,0.0000,0.0000,0.0000,0.0000,0.0000,0.0000,0.0000,0.0000,-0.0500,0.2072,0.2072,0.2072,0.2072,1,5,1749741145636850193,1749741145633404238,1749741145637094431,1749741145637082723,1749741145637103597,1749741145637105264,1749741145637370709,1749741145637376251,1749741145637403333,1749741145633046380,0
20,1749741145642728779,1749741145642295009,1749741145642295009,1749741145642733737,16.1887,561.6066,33.9200,-0.0202,-0.0341,0.0053,-0.9867,0.0837,-10.6408,0.0000,0.0000,0.0000,0.0596,-0.1294,0.0186,0.0081,-0.0140,0.0250,-0.0590,-1.7882,-0.1011,0.0007,0.0001,0.0002,0.0000,324325903,1749741145637076682,-0.0590,-1.7882,-0.1011,0.9999,0.0058,-0.0019,0.0093,0.0000,0.0000,0.0000,0.00000000,0.00000000,0.000,0.000,0.000,0.000,0.000,0,0,0.000,0.000,0.000,0.000,0.000,0,0,0,0,0,0,0,0.0000,0.0000,-0.0500,0.0000,0.0000,0.0000,0.0000,0.0000,0.0000,0.0000,0.0000,0.0000,0.0000,0.0000,0.0000,0.0000,0.0000,0.0000,0.0000,0.0000,0.0000,0.0000,0.0000,0.0000,0.0000,0.0000,0.0000,0.0000,0.0000,0.0000,0.0000,0.0000,0.0000,0.0000,-0.0500,0.2072,0.2072,0.2072,0.2072,1,5,1749741145642299675,1749741145637418415,1749741145642354173,1749741145642341257,1749741145642365214,1749741145642366881,1749741145642689156,1749741145642694906,1749741145642729946,1749741145637416707,0
21,1749741145647889318,1749741145647222434,1749741145647222434,1749741145647894026,16.1832,561.6066,33.9200,-0.0639,-0.0277,-0.0383,-1.1448,1.2035,-8.4721,0.0000,0.0000,0.0000,0.0593,-0.1294,0.0187,-0.0159,-0.0185,0.0039,-0.0591,-1.7882,-0.1010,-0.0000,-0.0001,0.0004,0.0000,324334675,1749741145647493754,-0.0591,-1.7882,-0.1010,0.9999,0.0057,-0.0018,0.0094,0.0000,0.0000,0.0000,0.00000000,0.00000000,0.000,0.000,0.000,0.000,0.000,0,0,0.000,0.000,0.000,0.000,0.000,0,0,0,0,0,0,0,0.0000,0.0000,-0.0500,0.0000,0.0000,0.0000,0.0000,0.0000,0.0000,0.0000,0.0000,0.0000,0.0000,0.0000,0.0000,0.0000,0.0000,0.0000,0.0000,0.0000,0.0000,0.0000,0.0000,0.0000,0.0000,0.0000,0.0000,0.0000,0.0000,0.0000,0.0000,0.0000,0.0000,0.0000,-0.0500,0.2072,0.2072,0.2072,0.2072,1,5,1749741145647226892,1749741145642748653,1749741145647518669,1749741145647502128,1749741145647529585,1749741145647531293,1749741145647850778,1749741145647855611,1749741145647890526,1749741145642746820,0
22,1749741145652709622,1749741145652275519,1749741145652275519,1749741145652714330,16.1767,561.6066,33.9200,0.0160,-0.0181,0.0085,-0.6706,0.0239,-8.7488,0.0000,0.0000,0.0000,0.0592,-0.1295,0.0187,-0.0053,-0.0184,0.0054,-0.0591,-1.7882,-0.1010,-0.0000,-0.0001,0.0004,0.0000,324334675,1749741145647493754,-0.0591,-1.7882,-0.1010,0.9999,0.0057,-0.0018,0.0094,0.0000,0.0000,0.0000,0.00000000,0.00000000,0.000,0.000,0.000,0.000,0.000,0,0,0.000,0.000,0.000,0.000,0.000,0,0,0,0,0,0,0,0.0000,0.0000,-0.0500,0.0000,0.0000,0.0000,0.0000,0.0000,0.0000,0.0000,0.0000,0.0000,0.0000,0.0000,0.0000,0.0000,0.0000,0.0000,0.0000,0.0000,0.0000,0.0000,0.0000,0.0000,0.0000,0.0000,0.0000,0.0000,0.0000,0.0000,0.0000,0.0000,0.0000,0.0000,-0.0500,0.2072,0.2072,0.2072,0.2072,1,5,1749741145652279935,1749741145647908775,1749741145652334974,1749741145652321850,1749741145652345807,1749741145652347432,1749741145652670458,1749741145652676207,1749741145652710831,1749741145647906858,0
23,1749741145657322937,1749741145656729091,1749741145656729091,1749741145657327645,16.1711,561.6066,33.9200,0.0298,0.0053,-0.0085,-0.1533,0.2775,-9.6364,0.0000,0.0000,0.0000,0.0593,-0.1295,0.0193,0.0064,-0.0105,0.0008,-0.0591,-1.7882,-0.1011,0.0005,-0.0000,0.0001,0.0000,324342854,1749741145656921332,-0.0591,-1.7882,-0.1011,0.9999,0.0058,-0.0018,0.0096,0.0000,0.0000,0.0000,0.00000000,0.00000000,0.000,0.000,0.000,0.000,0.000,0,0,0.000,0.000,0.000,0.000,0.000,0,0,0,0,0,0,0,0.0000,0.0000,-0.0500,0.0000,0.0000,0.0000,0.0000,0.0000,0.0000,0.0000,0.0000,0.0000,0.0000,0.0000,0.0000,0.0000,0.0000,0.0000,0.0000,0.0000,0.0000,0.0000,0.0000,0.0000,0.0000,0.0000,0.0000,0.0000,0.0000,0.0000,0.0000,0.0000,0.0000,0.0000,-0.0500,0.2072,0.2072,0.2072,0.2072,1,5,1749741145656733925,1749741145652728705,1749741145656947706,1749741145656929665,1749741145656959205,1749741145656960955,1749741145657283939,1749741145657289606,1749741145657324146,1749741145652726830,0
24,1749741145662477059,1749741145661968584,1749741145661968584,1749741145662482184,16.1665,561.6066,33.9200,0.0383,0.0309,-0.0479,0.0551,-0.4689,-8.6319,0.0000,0.0000,0.0000,0.0594,-0.1292,0.0193,0.0171,0.0033,-0.0155,-0.0591,-1.7882,-0.1011,0.0005,-0.0000,0.0001,0.0000,324342854,1749741145656921332,-0.0591,-1.7882,-0.1011,0.9999,0.0058,-0.0018,0.0096,0.0000,0.0000,0.0000,0.00000000,0.00000000,0.000,0.000,0.000,0.000,0.000,0,0,0.000,0.000,0.000,0.000,0.000,0,0,0,0,0,0,0,0.0000,0.0000,-0.0500,0.0000,0.0000,0.0000,0.0000,0.0000,0.0000,0.0000,0.0000,0.0000,0.0000,0.0000,0.0000,0.0000,0.0000,0.0000,0.0000,0.0000,0.0000,0.0000,0.0000,0.0000,0.0000,0.0000,0.0000,0.0000,0.0000,0.0000,0.0000,0.0000,0.0000,0.0000,-0.0500,0.2072,0.2072,0.2072,0.2072,1,5,1749741145661973000,1749741145657341936,1749741145662028123,1749741145662015165,1749741145662039122,1749741145662040789,1749741145662437686,1749741145662443644,1749741145662478226,1749741145657340061,0
25,1749741145667644972,1749741145667054126,1749741145667054126,1749741145667649638,16.1602,561.6066,33.9200,0.0405,-0.0181,-0.0117,-0.5939,-0.2129,-9.6125,0.0000,0.0000,0.0000,0.0597,-0.1292,0.0195,0.0249,-0.0038,-0.0142,-0.0591,-1.7882,-0.1011,0.0005,0.0001,-0.0004,0.0000,324351382,1749741145667245450,-0.0591,-1.7882,-0.1011,0.9999,0.0058,-0.0019,0.0098,0.0000,0.0000,0.0000,0.00000000,0.00000000,0.000,0.000,0.000,0.000,0.000,0,0,0.000,0.000,0.000,0.000,0.000,0,0,0,0,0,0,0,0.0000,0.0000,-0.0500,0.0000,0.0000,0.0000,0.0000,0.0000,0.0000,0.0000,0.0000,0.0000,0.0000,0.0000,0.0000,0.0000,0.0000,0.0000,0.0000,0.0000,0.0000,0.0000,0.0000,0.0000,0.0000,0.0000,0.0000,0.0000,0.0000,0.0000,0.0000,0.0000,0.0000,0.0000,-0.0500,0.2072,0.2072,0.2072,0.2072,1,5,1749741145667058792,1749741145662497475,1749741145667271823,1749741145667253824,1749741145667282990,1749741145667284781,1749741145667605974,1749741145667611682,1749741145667646180,1749741145662495141,0
26,1749741145672549689,1749741145671956177,1749741145671956177,1749741145672554397,16.1605,561.6066,33.9200,-0.0224,-0.0501,-0.0138,-1.0873,0.5623,-7.9997,0.0000,0.0000,0.0000,0.0595,-0.1293,0.0193,0.0091,-0.0192,-0.0141,-0.0591,-1.7882,-0.1012,-0.0000,0.0001,-0.0006,0.0000,324359392,1749741145672147209,-0.0591,-1.7882,-0.1012,0.9999,0.0057,-0.0018,0.0097,0.0000,0.0000,0.0000,0.00000000,0.00000000,0.000,0.000,0.000,0.000,0.000,0,0,0.000,0.000,0.000,0.000,0.000,0,0,0,0,0,0,0,0.0000,0.0000,-0.0500,0.0000,0.0000,0.0000,0.0000,0.0000,0.0000,0.0000,0.0000,0.0000,0.0000,0.0000,0.0000,0.0000,0.0000,0.0000,0.0000,0.0000,0.0000,0.0000,0.0000,0.0000,0.0000,0.0000,0.0000,0.0000,0.0000,0.0000,0.0000,0.0000,0.0000,0.0000,-0.0500,0.2072,0.2072,0.2072,0.2072,1,5,1749741145671960801,1749741145667664304,1749741145672173958,1749741145672155958,1749741145672185790,1749741145672187540,1749741145672509816,1749741145672515691,1749741145672550856,1749741145667662471,0
27,1749741145677447782,1749741145677015678,1749741145677015678,1749741145677452698,16.1626,561.6066,33.9200,-0.0373,-0.0021,-0.0192,-0.4598,1.8208,-9.2188,0.0000,0.0000,0.0000,0.0593,-0.1293,0.0193,-0.0063,-0.0135,-0.0158,-0.0591,-1.7882,-0.1012,-0.0000,0.0001,-0.0006,0.0000,324359392,1749741145672147209,-0.0591,-1.7882,-0.1012,0.9999,0.0057,-0.0018,0.0097,0.0000,0.0000,0.0000,0.00000000,0.00000000,0.000,0.000,0.000,0.000,0.000,0,0,0.000,0.000,0.000,0.000,0.000,0,0,0,0,0,0,0,0.0000,0.0000,-0.0500,0.0000,0.0000,0.0000,0.0000,0.0000,0.0000,0.0000,0.0000,0.0000,0.0000,0.0000,0.0000,0.0000,0.0000,0.0000,0.0000,0.0000,0.0000,0.0000,0.0000,0.0000,0.0000,0.0000,0.0000,0.0000,0.0000,0.0000,0.0000,0.0000,0.0000,0.0000,-0.0500,0.2072,0.2072,0.2072,0.2072,1,5,1749741145677020511,1749741145672569188,1749741145677073717,1749741145677060467,1749741145677084675,1749741145677086383,1749741145677408492,1749741145677414158,1749741145677448948,1749741145672567313,0
28,1749741145682723523,1749741145682027015,1749741145682027015,1749741145682728189,16.1641,561.6066,33.9200,0.0266,-0.0138,0.0298,0.5293,-0.1747,-8.9540,0.0000,0.0000,0.0000,0.0592,-0.1293,0.0190,0.0046,-0.0136,-0.0006,-0.0591,-1.7883,-0.1012,-0.0002,-0.0002,-0.0005,0.0000,324367615,1749741145682324584,-0.0591,-1.7883,-0.1012,0.9999,0.0056,-0.0018,0.0095,0.0000,0.0000,0.0000,0.00000000,0.00000000,0.000,0.000,0.000,0.000,0.000,0,0,0.000,0.000,0.000,0.000,0.000,0,0,0,0,0,0,0,0.0000,0.0000,-0.0500,0.0000,0.0000,0.0000,0.0000,0.0000,0.0000,0.0000,0.0000,0.0000,0.0000,0.0000,0.0000,0.0000,0.0000,0.0000,0.0000,0.0000,0.0000,0.0000,0.0000,0.0000,0.0000,0.0000,0.0000,0.0000,0.0000,0.0000,0.0000,0.0000,0.0000,0.0000,-0.0500,0.2072,0.2072,0.2072,0.2072,1,5,1749741145682031390,1749741145677467572,1749741145682350958,1749741145682333208,1749741145682361790,1749741145682363457,1749741145682684816,1749741145682690524,1749741145682724689,1749741145677465656,0
29,1749741145688203545,1749741145687613407,1749741145687613407,1749741145688208253,16.1701,561.4558,33.9300,0.0671,-0.0192,0.0266,-0.7592,-1.3901,-10.0801,0.0000,0.0000,0.0000,0.0595,-0.1293,0.0191,0.0255,-0.0155,0.0085,-0.0590,-1.7883,-0.1011,0.0009,-0.0001,0.0000,0.0000,324375926,1749741145687804606,-0.0590,-1.7883,-0.1011,0.9999,0.0057,-0.0020,0.0095,0.0000,0.0000,0.0000,0.00000000,0.00000000,0.000,0.000,0.000,0.000,0.000,0,0,0.000,0.000,0.000,0.000,0.000,0,0,0,0,0,0,0,0.0000,0.0000,-0.0500,0.0000,0.0000,0.0000,0.0000,0.0000,0.0000,0.0000,0.0000,0.0000,0.0000,0.0000,0.0000,0.0000,0.0000,0.0000,0.0000,0.0000,0.0000,0.0000,0.0000,0.0000,0.0000,0.0000,0.0000,0.0000,0.0000,0.0000,0.0000,0.0000,0.0000,0.0000,-0.0500,0.2072,0.2072,0.2072,0.2072,1,5,1749741145687617907,1749741145683430404,1749741145687830397,1749741145687812939,1749741145687842146,1749741145687843938,1749741145688163630,1749741145688169547,1749741145688204753,1749741145682740522,0
30,1749741145692640285,1749741145692206348,1749741145692206348,1749741145692644993,16.1762,561.4558,33.9300,0.0064,-0.0075,0.0149,-1.4896,0.2656,-9.8344,0.0000,0.0000,0.0000,0.0596,-0.1293,0.0191,0.0191,-0.0128,0.0106,-0.0590,-1.7883,-0.1011,0.0009,-0.0001,0.0000,0.0000,324375926,1749741145687804606,-0.0590,-1.7883,-0.1011,0.9999,0.0057,-0.0020,0.0095,0.0000,0.0000,0.0000,0.00000000,0.00000000,0.000,0.000,0.000,0.000,0.000,0,0,0.000,0.000,0.000,0.000,0.000,0,0,0,0,0,0,0,0.0000,0.0000,-0.0500,0.0000,0.0000,0.0000,0.0000,0.0000,0.0000,0.0000,0.0000,0.0000,0.0000,0.0000,0.0000,0.0000,0.0000,0.0000,0.0000,0.0000,0.0000,0.0000,0.0000,0.0000,0.0000,0.0000,0.0000,0.0000,0.0000,0.0000,0.0000,0.0000,0.0000,0.0000,-0.0500,0.2072,0.2072,0.2072,0.2072,1,5,1749741145692210890,1749741145688222919,1749741145692265554,1749741145692252804,1749741145692276386,1749741145692278053,1749741145692600454,1749741145692606454,1749741145692641494,1749741145688221044,0
31,1749741145697353929,1749741145696775374,1749741145696775374,1749741145697358595,16.1885,561.4558,33.9300,-0.0213,-0.0075,0.0586,-0.5652,0.9451,-8.3743,0.0000,0.0000,0.0000,0.0594,-0.1293,0.0188,0.0056,-0.0110,0.0266,-0.0590,-1.7882,-0.1011,0.0010,0.0001,0.0003,0.0000,324384186,1749741145696954073,-0.0590,-1.7882,-0.1011,0.9999,0.0057,-0.0020,0.0094,0.0000,0.0000,0.0000,0.00000000,0.00000000,0.000,0.000,0.000,0.000,0.000,0,0,0.000,0.000,0.000,0.000,0.000,0,0,0,0,0,0,0,0.0000,0.0000,-0.0500,0.0000,0.0000,0.0000,0.0000,0.0000,0.0000,0.0000,0.0000,0.0000,0.0000,0.0000,0.0000,0.0000,0.0000,0.0000,0.0000,0.0000,0.0000,0.0000,0.0000,0.0000,0.0000,0.0000,0.0000,0.0000,0.0000,0.0000,0.0000,0.0000,0.0000,0.0000,-0.0500,0.2072,0.2072,0.2072,0.2072,1,5,1749741145696779582,1749741145692659701,1749741145696979405,1749741145696962615,1749741145696991321,1749741145696993071,1749741145697314056,1749741145697320680,1749741145697355095,1749741145692657909,0
32,1749741145702206815,1749741145701697840,1749741145701697840,1749741145702211482,16.2025,561.4558,33.9300,-0.0202,-0.0298,0.0415,0.6227,0.4929,-9.1831,0.0000,0.0000,0.0000,0.0591,-0.1294,0.0188,-0.0030,-0.0173,0.0316,-0.0590,-1.7882,-0.1011,0.0010,0.0001,0.0003,0.0000,324384186,1749741145696954073,-0.0590,-1.7882,-0.1011,0.9999,0.0057,-0.0020,0.0094,0.0000,0.0000,0.0000,0.00000000,0.00000000,0.000,0.000,0.000,0.000,0.000,0,0,0.000,0.000,0.000,0.000,0.000,0,0,0,0,0,0,0,0.0000,0.0000,-0.0500,0.0000,0.0000,0.0000,0.0000,0.0000,0.0000,0.0000,0.0000,0.0000,0.0000,0.0000,0.0000,0.0000,0.0000,0.0000,0.0000,0.0000,0.0000,0.0000,0.0000,0.0000,0.0000,0.0000,0.0000,0.0000,0.0000,0.0000,0.0000,0.0000,0.0000,0.0000,-0.0500,0.2072,0.2072,0.2072,0.2072,1,5,1749741145701702298,1749741145697373761,1749741145701752379,1749741145701739505,1749741145701762962,1749741145701764629,1749741145702087071,1749741145702172692,1749741145702207982,1749741145697371844,0
33,1749741145707460765,1749741145706867753,1749741145706867753,1749741145707465515,16.2083,561.4558,33.9300,0.0490,-0.0341,-0.0064,-0.0192,-0.4833,-8.6176,0.0000,0.0000,0.0000,0.0593,-0.1294,0.0186,0.0143,-0.0229,0.0189,-0.0590,-1.7883,-0.1011,0.0007,-0.0002,0.0004,0.0000,324392379,1749741145707059660,-0.0590,-1.7883,-0.1011,0.9999,0.0057,-0.0020,0.0093,0.0000,0.0000,0.0000,0.00000000,0.00000000,0.000,0.000,0.000,0.000,0.000,0,0,0.000,0.000,0.000,0.000,0.000,0,0,0,0,0,0,0,0.0000,0.0000,-0.0500,0.0000,0.0000,0.0000,0.0000,0.0000,0.0000,0.0000,0.0000,0.0000,0.0000,0.0000,0.0000,0.0000,0.0000,0.0000,0.0000,0.0000,0.0000,0.0000,0.0000,0.0000,0.0000,0.0000,0.0000,0.0000,0.0000,0.0000,0.0000,0.0000,0.0000,0.0000,-0.0500,0.2072,0.2072,0.2072,0.2072,1,5,1749741145706872253,1749741145702226564,1749741145707085700,1749741145707067910,1749741145707097033,1749741145707098825,1749741145707420809,1749741145707426850,1749741145707461974,1749741145702224148,0
34,1749741145712910498,1749741145712320985,1749741145712320985,1749741145712915622,16.2115,561.4558,33.9300,0.0256,-0.0202,-0.0234,-1.5711,-0.2105,-11.1466,0.0000,0.0000,0.0000,0.0594,-0.1294,0.0188,0.0181,-0.0220,0.0048,-0.0591,-1.7883,-0.1011,0.0005,0.0000,-0.0001,0.0000,324401133,1749741145712506226,-0.0591,-1.7883,-0.1011,0.9999,0.0057,-0.0019,0.0094,0.0000,0.0000,0.0000,0.00000000,0.00000000,0.000,0.000,0.000,0.000,0.000,0,0,0.000,0.000,0.000,0.000,0.000,0,0,0,0,0,0,0,0.0000,0.0000,-0.0500,0.0000,0.0000,0.0000,0.0000,0.0000,0.0000,0.0000,0.0000,0.0000,0.0000,0.0000,0.0000,0.0000,0.0000,0.0000,0.0000,0.0000,0.0000,0.0000,0.0000,0.0000,0.0000,0.0000,0.0000,0.0000,0.0000,0.0000,0.0000,0.0000,0.0000,0.0000,-0.0500,0.2072,0.2072,0.2072,0.2072,1,5,1749741145712325401,1749741145707480389,1749741145712532100,1749741145712514850,1749741145712543766,1749741145712545474,1749741145712871500,1749741145712877208,1749741145712911956,1749741145707478515,0
35,1749741145717794841,1749741145717362321,1749741145717362321,1749741145717799549,16.2156,561.4558,33.9300,0.0000,-0.0032,0.0224,-1.4250,0.8278,-10.9581,0.0000,0.0000,0.0000,0.0594,-0.1295,0.0188,0.0121,-0.0157,0.0107,-0.0591,-1.7883,-0.1011,0.0005,0.0000,-0.0001,0.0000,324401133,1749741145712506226,-0.0591,-1.7883,-0.1011,0.9999,0.0057,-0.0019,0.0094,0.0000,0.0000,0.0000,0.00000000,0.00000000,0.000,0.000,0.000,0.000,0.000,0,0,0.000,0.000,0.000,0.000,0.000,0,0,0,0,0,0,0,0.0000,0.0000,-0.0500,0.0000,0.0000,0.0000,0.0000,0.0000,0.0000,0.0000,0.0000,0.0000,0.0000,0.0000,0.0000,0.0000,0.0000,0.0000,0.0000,0.0000,0.0000,0.0000,0.0000,0.0000,0.0000,0.0000,0.0000,0.0000,0.0000,0.0000,0.0000,0.0000,0.0000,0.0000,-0.0500,0.2072,0.2072,0.2072,0.2072,1,5,1749741145717366445,1749741145712929913,1749741145717417318,1749741145717403652,1749741145717428317,1749741145717429942,1749741145717754968,1749741145717761134,1749741145717796008,1749741145712928080,0
36,1749741145722910173,1749741145722318910,1749741145722318910,1749741145722914839,16.2175,561.4558,33.9300,-0.0266,0.0107,-0.0000,0.7640,0.0790,-8.6295,0.0000,0.0000,0.0000,0.0591,-0.1294,0.0190,-0.0008,-0.0069,0.0071,-0.0590,-1.7882,-0.1011,0.0006,0.0003,-0.0003,0.0000,324409032,1749741145722510859,-0.0590,-1.7882,-0.1011,0.9999,0.0057,-0.0019,0.0095,0.0000,0.0000,0.0000,0.00000000,0.00000000,0.000,0.000,0.000,0.000,0.000,0,0,0.000,0.000,0.000,0.000,0.000,0,0,0,0,0,0,0,0.0000,0.0000,-0.0500,0.0000,0.0000,0.0000,0.0000,0.0000,0.0000,0.0000,0.0000,0.0000,0.0000,0.0000,0.0000,0.0000,0.0000,0.0000,0.0000,0.0000,0.0000,0.0000,0.0000,0.0000,0.0000,0.0000,0.0000,0.0000,0.0000,0.0000,0.0000,0.0000,0.0000,0.0000,-0.0500,0.2072,0.2072,0.2072,0.2072,1,5,1749741145722323452,1749741145717815298,1749741145722536650,1749741145722519067,1749741145722548482,1749741145722550191,1749741145722871008,1749741145722876716,1749741145722911340,1749741145717813423,0
37,1749741145727747852,1749741145727312207,1749741145727312207,1749741145727752560,16.2197,561.4558,33.9300,0.0714,-0.0373,-0.0277,0.2850,-0.6221,-9.4049,0.0000,0.0000,0.0000,0.0594,-0.1294,0.0190,0.0232,-0.0171,-0.0045,-0.0590,-1.7882,-0.1011,0.0006,0.0003,-0.0003,0.0000,324409032,1749741145722510859,-0.0590,-1.7882,-0.1011,0.9999,0.0057,-0.0019,0.0095,0.0000,0.0000,0.0000,0.00000000,0.00000000,0.000,0.000,0.000,0.000,0.000,0,0,0.000,0.000,0.000,0.000,0.000,0,0,0,0,0,0,0,0.0000,0.0000,-0.0500,0.0000,0.0000,0.0000,0.0000,0.0000,0.0000,0.0000,0.0000,0.0000,0.0000,0.0000,0.0000,0.0000,0.0000,0.0000,0.0000,0.0000,0.0000,0.0000,0.0000,0.0000,0.0000,0.0000,0.0000,0.0000,0.0000,0.0000,0.0000,0.0000,0.0000,0.0000,-0.0500,0.2072,0.2072,0.2072,0.2072,1,5,1749741145727316581,1749741145722930464,1749741145727371620,1749741145727358829,1749741145727382870,1749741145727384495,1749741145727708937,1749741145727714562,1749741145727749060,1749741145722928589,0
38,1749741145732431413,1749741145731851025,1749741145731851025,1749741145732436122,16.2216,561.4558,33.9300,0.0458,-0.0170,-0.0426,-2.1889,0.7058,-8.3170,0.0000,0.0000,0.0000,0.0597,-0.1293,0.0193,0.0308,-0.0171,-0.0172,-0.0591,-1.7883,-0.1012,0.0004,0.0000,-0.0006,0.0000,324417658,1749741145732034475,-0.0591,-1.7883,-0.1012,0.9999,0.0058,-0.0019,0.0096,0.0000,0.0000,0.0000,0.00000000,0.00000000,0.000,0.000,0.000,0.000,0.000,0,0,0.000,0.000,0.000,0.000,0.000,0,0,0,0,0,0,0,0.0000,0.0000,-0.0500,0.0000,0.0000,0.0000,0.0000,0.0000,0.0000,0.0000,0.0000,0.0000,0.0000,0.0000,0.0000,0.0000,0.0000,0.0000,0.0000,0.0000,0.0000,0.0000,0.0000,0.0000,0.0000,0.0000,0.0000,0.0000,0.0000,0.0000,0.0000,0.0000,0.0000,0.0000,-0.0500,0.2072,0.2072,0.2072,0.2072,1,5,1749741145731855442,1749741145727768393,1749741145732060557,1749741145732042641,1749741145732072473,1749741145732074181,1749741145732392415,1749741145732398290,1749741145732432580,1749741145727766518,0
39,1749741145737653449,1749741145737220011,1749741145737220011,1749741145737658365,16.2231,561.8201,33.9300,-0.0682,0.0341,0.0138,-1.0873,2.4715,-10.7148,0.0000,0.0000,0.0000,0.0592,-0.1293,0.0193,-0.0022,-0.0000,-0.0068,-0.0591,-1.7883,-0.1012,0.0004,0.0000,-0.0006,0.0000,324417658,1749741145732034475,-0.0591,-1.7883,-0.1012,0.9999,0.0058,-0.0019,0.0096,0.0000,0.0000,0.0000,0.00000000,0.00000000,0.000,0.000,0.000,0.000,0.000,0,0,0.000,0.000,0.000,0.000,0.000,0,0,0,0,0,0,0,0.0000,0.0000,-0.0500,0.0000,0.0000,0.0000,0.0000,0.0000,0.0000,0.0000,0.0000,0.0000,0.0000,0.0000,0.0000,0.0000,0.0000,0.0000,0.0000,0.0000,0.0000,0.0000,0.0000,0.0000,0.0000,0.0000,0.0000,0.0000,0.0000,0.0000,0.0000,0.0000,0.0000,0.0000,-0.0500,0.2072,0.2072,0.2072,0.2072,1,5,1749741145737224470,1749741145732798645,1749741145737279550,1749741145737266468,1749741145737290341,1749741145737292008,1749741145737614742,1749741145737620450,1749741145737654657,1749741145732448538,0
40,1749741145742705575,1749741145742273638,1749741145742273638,1749741145742710283,16.2245,561.8201,33.9300,-0.0373,0.0181,0.0362,1.1759,-1.4930,-8.7798,0.0000,0.0000,0.0000,0.0587,-0.1291,0.0193,-0.0139,0.0060,0.0075,-0.0591,-1.7883,-0.1012,0.0004,0.0000,-0.0006,0.0000,324417658,1749741145732034475,-0.0591,-1.7883,-0.1012,0.9999,0.0058,-0.0019,0.0096,0.0000,0.0000,0.0000,0.00000000,0.00000000,0.000,0.000,0.000,0.000,0.000,0,0,0.000,0.000,0.000,0.000,0.000,0,0,0,0,0,0,0,0.0000,0.0000,-0.0500,0.0000,0.0000,0.0000,0.0000,0.0000,0.0000,0.0000,0.0000,0.0000,0.0000,0.0000,0.0000,0.0000,0.0000,0.0000,0.0000,0.0000,0.0000,0.0000,0.0000,0.0000,0.0000,0.0000,0.0000,0.0000,0.0000,0.0000,0.0000,0.0000,0.0000,0.0000,-0.0500,0.2072,0.2072,0.2072,0.2072,1,5,1749741145742277513,1749741145737672823,1749741145742328635,1749741145742315178,1749741145742339510,1749741145742341218,1749741145742665536,1749741145742671410,1749741145742706742,1749741145737670948,0
41,1749741145747204604,1749741145746781125,1749741145746781125,1749741145747209312,16.2262,561.8201,33.9300,0.0842,-0.0874,-0.0490,0.2946,-1.6724,-8.6272,0.0000,0.0000,0.0000,0.0593,-0.1293,0.0193,0.0188,-0.0251,-0.0113,-0.0591,-1.7883,-0.1012,0.0004,0.0000,-0.0006,0.0000,324417658,1749741145732034475,-0.0591,-1.7883,-0.1012,0.9999,0.0058,-0.0019,0.0096,0.0000,0.0000,0.0000,0.00000000,0.00000000,0.000,0.000,0.000,0.000,0.000,0,0,0.000,0.000,0.000,0.000,0.000,0,0,0,0,0,0,0,0.0000,0.0000,-0.0500,0.0000,0.0000,0.0000,0.0000,0.0000,0.0000,0.0000,0.0000,0.0000,0.0000,0.0000,0.0000,0.0000,0.0000,0.0000,0.0000,0.0000,0.0000,0.0000,0.0000,0.0000,0.0000,0.0000,0.0000,0.0000,0.0000,0.0000,0.0000,0.0000,0.0000,0.0000,-0.0500,0.2072,0.2072,0.2072,0.2072,1,5,1749741145746785583,1749741145742725241,1749741145746833247,1749741145746819873,1749741145746844247,1749741145746845913,1749741145747165606,1749741145747171981,1749741145747205771,1749741145742723074,0
42,1749741145752851243,1749741145752259106,1749741145752259106,1749741145752856160,16.2279,561.8201,33.9300,0.0341,-0.0266,-0.0064,-3.2714,2.4309,-9.2093,0.0000,0.0000,0.0000,0.0596,-0.1293,0.0193,0.0239,-0.0256,-0.0097,-0.0591,-1.7882,-0.1012,0.0003,0.0001,-0.0006,0.0000,324427119,1749741145752452305,-0.0591,-1.7882,-0.1012,0.9999,0.0056,-0.0019,0.0096,0.0000,0.0000,0.0000,0.00000000,0.00000000,0.000,0.000,0.000,0.000,0.000,0,0,0.000,0.000,0.000,0.000,0.000,0,0,0,0,0,0,0,0.0000,0.0000,-0.0500,0.0000,0.0000,0.0000,0.0000,0.0000,0.0000,0.0000,0.0000,0.0000,0.0000,0.0000,0.0000,0.0000,0.0000,0.0000,0.0000,0.0000,0.0000,0.0000,0.0000,0.0000,0.0000,0.0000,0.0000,0.0000,0.0000,0.0000,0.0000,0.0000,0.0000,0.0000,-0.0500,0.2072,0.2072,0.2072,0.2072,1,5,1749741145752263856,1749741145747223895,1749741145752479012,1749741145752461013,1749741145752490636,1749741145752492428,1749741145752812037,1749741145752817620,1749741145752852410,1749741145747222020,0
43,1749741145757851081,1749741145757272318,1749741145757272318,1749741145757856164,16.2294,561.8201,33.9300,-0.0458,0.0575,0.1150,0.5412,2.5936,-8.9445,0.0000,0.0000,0.0000,0.0590,-0.1293,0.0190,0.0007,0.0021,0.0319,-0.0591,-1.7883,-0.1012,0.0006,-0.0002,-0.0000,0.0000,324434581,1749741145757453684,-0.0591,-1.7883,-0.1012,0.9999,0.0057,-0.0020,0.0095,0.0000,0.0000,0.0000,0.00000000,0.00000000,0.000,0.000,0.000,0.000,0.000,0,0,0.000,0.000,0.000,0.000,0.000,0,0,0,0,0,0,0,0.0000,0.0000,-0.0500,0.0000,0.0000,0.0000,0.0000,0.0000,0.0000,0.0000,0.0000,0.0000,0.0000,0.0000,0.0000,0.0000,0.0000,0.0000,0.0000,0.0000,0.0000,0.0000,0.0000,0.0000,0.0000,0.0000,0.0000,0.0000,0.0000,0.0000,0.0000,0.0000,0.0000,0.0000,-0.0500,0.2072,0.2072,0.2072,0.2072,1,5,1749741145757276776,1749741145752870409,1749741145757479224,1749741145757462017,1749741145757490849,1749741145757492599,1749741145757811791,1749741145757817499,1749741145757852248,1749741145752868534,0
44,1749741145763060575,1749741145762551350,1749741145762551350,1749741145763065325,16.2289,561.8201,33.9300,-0.0011,-0.0213,0.0298,2.6727,-1.8184,-10.2877,0.0000,0.0000,0.0000,0.0587,-0.1292,0.0190,0.0001,-0.0057,0.0312,-0.0591,-1.7883,-0.1012,0.0006,-0.0002,-0.0000,0.0000,324434581,1749741145757453684,-0.0591,-1.7883,-0.1012,0.9999,0.0057,-0.0020,0.0095,0.0000,0.0000,0.0000,0.00000000,0.00000000,0.000,0.000,0.000,0.000,0.000,0,0,0.000,0.000,0.000,0.000,0.000,0,0,0,0,0,0,0,0.0000,0.0000,-0.0500,0.0000,0.0000,0.0000,0.0000,0.0000,0.0000,0.0000,0.0000,0.0000,0.0000,0.0000,0.0000,0.0000,0.0000,0.0000,0.0000,0.0000,0.0000,0.0000,0.0000,0.0000,0.0000,0.0000,0.0000,0.0000,0.0000,0.0000,0.0000,0.0000,0.0000,0.0000,-0.0500,0.2072,0.2072,0.2072,0.2072,1,5,1749741145762555808,1749741145757870622,1749741145762686260,1749741145762673052,1749741145762697760,1749741145762699843,1749741145763021119,1749741145763026743,1749741145763061783,1749741145757868497,0
45,1749741145767817466,1749741145767293492,1749741145767293492,1749741145767822133,16.2308,561.8201,33.9300,0.0597,-0.0948,-0.0937,-2.8787,-1.1102,-9.7485,0.0000,0.0000,0.0000,0.0592,-0.1293,0.0191,0.0199,-0.0354,-0.0104,-0.0590,-1.7882,-0.1011,0.0006,-0.0001,0.0000,0.0000,324442910,1749741145767417194,-0.0590,-1.7882,-0.1011,0.9999,0.0056,-0.0020,0.0096,0.0000,0.0000,0.0000,0.00000000,0.00000000,0.000,0.000,0.000,0.000,0.000,0,0,0.000,0.000,0.000,0.000,0.000,0,0,0,0,0,0,0,0.0000,0.0000,-0.0500,0.0000,0.0000,0.0000,0.0000,0.0000,0.0000,0.0000,0.0000,0.0000,0.0000,0.0000,0.0000,0.0000,0.0000,0.0000,0.0000,0.0000,0.0000,0.0000,0.0000,0.0000,0.0000,0.0000,0.0000,0.0000,0.0000,0.0000,0.0000,0.0000,0.0000,0.0000,-0.0500,0.2072,0.2072,0.2072,0.2072,1,5,1749741145767297867,1749741145763081282,1749741145767443276,1749741145767425361,1749741145767455026,1749741145767456776,1749741145767778010,1749741145767783635,1749741145767818633,1749741145763079033,0
46,1749741145772977005,1749741145772346869,1749741145772346869,1749741145772981921,16.2318,561.8201,33.9300,-0.0075,0.0234,0.0458,-2.8403,3.1941,-9.2928,0.0000,0.0000,0.0000,0.0592,-0.1293,0.0191,0.0108,-0.0158,0.0083,-0.0590,-1.7882,-0.1011,0.0006,-0.0001,0.0000,0.0000,324442910,1749741145767417194,-0.0590,-1.7882,-0.1011,0.9999,0.0056,-0.0020,0.0096,0.0000,0.0000,0.0000,0.00000000,0.00000000,0.000,0.000,0.000,0.000,0.000,0,0,0.000,0.000,0.000,0.000,0.000,0,0,0,0,0,0,0,0.0000,0.0000,-0.0500,0.0000,0.0000,0.0000,0.0000,0.0000,0.0000,0.0000,0.0000,0.0000,0.0000,0.0000,0.0000,0.0000,0.0000,0.0000,0.0000,0.0000,0.0000,0.0000,0.0000,0.0000,0.0000,0.0000,0.0000,0.0000,0.0000,0.0000,0.0000,0.0000,0.0000,0.0000,-0.0500,0.2072,0.2072,0.2072,0.2072,1,5,1749741145772351285,1749741145767838090,1749741145772510986,1749741145772498278,1749741145772522527,1749741145772524277,1749741145772847261,1749741145772853011,1749741145772978338,1749741145767836215,0
47,1749741145777629526,1749741145777134175,1749741145777134175,1749741145777634234,16.2323,561.8201,33.9300,-0.0224,0.0426,0.1214,2.7350,-0.6436,-8.5747,0.0000,0.0000,0.0000,0.0586,-0.1293,0.0186,-0.0003,0.0037,0.0460,-0.0590,-1.7883,-0.1011,0.0007,-0.0003,0.0002,0.0000,324450874,1749741145777228962,-0.0590,-1.7883,-0.1011,0.9999,0.0056,-0.0020,0.0093,0.0000,0.0000,0.0000,0.00000000,0.00000000,0.000,0.000,0.000,0.000,0.000,0,0,0.000,0.000,0.000,0.000,0.000,0,0,0,0,0,0,0,0.0000,0.0000,-0.0500,0.0000,0.0000,0.0000,0.0000,0.0000,0.0000,0.0000,0.0000,0.0000,0.0000,0.0000,0.0000,0.0000,0.0000,0.0000,0.0000,0.0000,0.0000,0.0000,0.0000,0.0000,0.0000,0.0000,0.0000,0.0000,0.0000,0.0000,0.0000,0.0000,0.0000,0.0000,-0.0500,0.2072,0.2072,0.2072,0.2072,1,5,1749741145777139050,1749741145772996712,1749741145777255253,1749741145777237337,1749741145777266544,1749741145777268752,1749741145777590153,1749741145777595819,1749741145777630734,1749741145772994879,0
48,1749741145782947265,1749741145782355835,1749741145782355835,1749741145782951931,16.2327,561.8201,33.9300,0.0735,-0.1033,-0.0937,0.6897,-3.6343,-7.8923,0.0000,0.0000,0.0000,0.0591,-0.1294,0.0189,0.0243,-0.0320,-0.0006,-0.0591,-1.7883,-0.1011,0.0002,-0.0001,-0.0001,0.0000,324458828,1749741145782546784,-0.0591,-1.7883,-0.1011,0.9999,0.0056,-0.0020,0.0095,0.0000,0.0000,0.0000,0.00000000,0.00000000,0.000,0.000,0.000,0.000,0.000,0,0,0.000,0.000,0.000,0.000,0.000,0,0,0,0,0,0,0,0.0000,0.0000,-0.0500,0.0000,0.0000,0.0000,0.0000,0.0000,0.0000,0.0000,0.0000,0.0000,0.0000,0.0000,0.0000,0.0000,0.0000,0.0000,0.0000,0.0000,0.0000,0.0000,0.0000,0.0000,0.0000,0.0000,0.0000,0.0000,0.0000,0.0000,0.0000,0.0000,0.0000,0.0000,-0.0500,0.2072,0.2072,0.2072,0.2072,1,5,1749741145782360252,1749741145777649067,1749741145782572158,1749741145782554992,1749741145782583907,1749741145782585574,1749741145782906933,1749741145782913100,1749741145782948431,1749741145777647192,0
49,1749741145787799110,1749741145787218430,1749741145787218430,1749741145787803776,16.2332,561.8565,33.9400,0.0352,-0.0479,-0.1076,-3.5708,3.5673,-10.2948,0.0000,0.0000,0.0000,0.0596,-0.1294,0.0187,0.0279,-0.0373,-0.0362,-0.0590,-1.7883,-0.1011,0.0010,-0.0000,-0.0002,0.0000,324467786,1749741145787399171,-0.0590,-1.7883,-0.1011,0.9999,0.0057,-0.0021,0.0094,0.0000,0.0000,0.0000,0.00000000,0.00000000,0.000,0.000,0.000,0.000,0.000,0,0,0.000,0.000,0.000,0.000,0.000,0,0,0,0,0,0,0,0.0000,0.0000,-0.0500,0.0000,0.0000,0.0000,0.0000,0.0000,0.0000,0.0000,0.0000,0.0000,0.0000,0.0000,0.0000,0.0000,0.0000,0.0000,0.0000,0.0000,0.0000,0.0000,0.0000,0.0000,0.0000,0.0000,0.0000,0.0000,0.0000,0.0000,0.0000,0.0000,0.0000,0.0000,-0.0500,0.2072,0.2072,0.2072,0.2072,1,5,1749741145787222680,1749741145783738601,1749741145787424045,1749741145787407504,1749741145787435461,1749741145787437211,1749741145787759028,1749741145787765028,1749741145787800276,1749741145782965722,0
50,1749741145793091100,1749741145792501587,1749741145792501587,1749741145793095766,16.2340,561.8565,33.9400,-0.0682,0.1023,0.1268,-0.3856,3.3377,-9.1377,0.0000,0.0000,0.0000,0.0588,-0.1292,0.0190,-0.0041,0.0092,0.0181,-0.0590,-1.7883,-0.1012,0.0004,-0.0005,-0.0006,0.0000,324475962,1749741145792692577,-0.0590,-1.7883,-0.1012,0.9999,0.0056,-0.0021,0.0095,0.0000,0.0000,0.0000,0.00000000,0.00000000,0.000,0.000,0.000,0.000,0.000,0,0,0.000,0.000,0.000,0.000,0.000,0,0,0,0,0,0,0,0.0000,0.0000,-0.0500,0.0000,0.0000,0.0000,0.0000,0.0000,0.0000,0.0000,0.0000,0.0000,0.0000,0.0000,0.0000,0.0000,0.0000,0.0000,0.0000,0.0000,0.0000,0.0000,0.0000,0.0000,0.0000,0.0000,0.0000,0.0000,0.0000,0.0000,0.0000,0.0000,0.0000,0.0000,-0.0500,0.2072,0.2072,0.2072,0.2072,1,5,1749741145792506003,1749741145787819984,1749741145792718326,1749741145792700869,1749741145792729534,1749741145792731201,1749741145793051851,1749741145793057560,1749741145793092266,1749741145787818109,0
51,1749741145797424553,1749741145796848082,1749741145796848082,1749741145797429261,16.2347,561.8565,33.9400,0.1161,-0.0458,0.0607,3.8247,-4.8689,-9.5696,0.0000,0.0000,0.0000,0.0590,-0.1293,0.0190,0.0360,-0.0091,0.0323,-0.0590,-1.7882,-0.1012,0.0008,0.0003,-0.0012,0.0000,324484067,1749741145797026323,-0.0590,-1.7882,-0.1012,0.9999,0.0056,-0.0020,0.0095,0.0000,0.0000,0.0000,0.00000000,0.00000000,0.000,0.000,0.000,0.000,0.000,0,0,0.000,0.000,0.000,0.000,0.000,0,0,0,0,0,0,0,0.0000,0.0000,-0.0500,0.0000,0.0000,0.0000,0.0000,0.0000,0.0000,0.0000,0.0000,0.0000,0.0000,0.0000,0.0000,0.0000,0.0000,0.0000,0.0000,0.0000,0.0000,0.0000,0.0000,0.0000,0.0000,0.0000,0.0000,0.0000,0.0000,0.0000,0.0000,0.0000,0.0000,0.0000,-0.0500,0.2072,0.2072,0.2072,0.2072,1,5,1749741145796852540,1749741145793110349,1749741145797052072,1749741145797034822,1749741145797063946,1749741145797065654,1749741145797385430,1749741145797391388,1749741145797425720,1749741145793108474,0
52,1749741145802503679,1749741145801999578,1749741145801999578,1749741145802508720,16.2361,561.8565,33.9400,0.0575,-0.1374,-0.2024,-4.8928,-1.9380,-10.7171,0.0000,0.0000,0.0000,0.0598,-0.1295,0.0190,0.0432,-0.0519,-0.0459,-0.0590,-1.7882,-0.1012,0.0008,0.0003,-0.0012,0.0000,324484067,1749741145797026323,-0.0590,-1.7882,-0.1012,0.9999,0.0056,-0.0020,0.0095,0.0000,0.0000,0.0000,0.00000000,0.00000000,0.000,0.000,0.000,0.000,0.000,0,0,0.000,0.000,0.000,0.000,0.000,0,0,0,0,0,0,0,0.0000,0.0000,-0.0500,0.0000,0.0000,0.0000,0.0000,0.0000,0.0000,0.0000,0.0000,0.0000,0.0000,0.0000,0.0000,0.0000,0.0000,0.0000,0.0000,0.0000,0.0000,0.0000,0.0000,0.0000,0.0000,0.0000,0.0000,0.0000,0.0000,0.0000,0.0000,0.0000,0.0000,0.0000,-0.0500,0.2072,0.2072,0.2072,0.2072,1,5,1749741145802004037,1749741145797444844,1749741145802059076,1749741145802046243,1749741145802070033,1749741145802071658,1749741145802464056,1749741145802469805,1749741145802504845,1749741145797442761,0
53,1749741145808044656,1749741145807455519,1749741145807455519,1749741145808049365,16.2376,561.8565,33.9400,-0.1055,0.0490,-0.0011,-3.6283,5.9217,-10.3282,0.0000,0.0000,0.0000,0.0594,-0.1296,0.0189,-0.0064,-0.0183,-0.0310,-0.0591,-1.7883,-0.1012,0.0003,-0.0002,-0.0009,0.0000,324492743,1749741145807645759,-0.0591,-1.7883,-0.1012,0.9999,0.0056,-0.0021,0.0095,0.0000,0.0000,0.0000,0.00000000,0.00000000,0.000,0.000,0.000,0.000,0.000,0,0,0.000,0.000,0.000,0.000,0.000,0,0,0,0,0,0,0,0.0000,0.0000,-0.0500,0.0000,0.0000,0.0000,0.0000,0.0000,0.0000,0.0000,0.0000,0.0000,0.0000,0.0000,0.0000,0.0000,0.0000,0.0000,0.0000,0.0000,0.0000,0.0000,0.0000,0.0000,0.0000,0.0000,0.0000,0.0000,0.0000,0.0000,0.0000,0.0000,0.0000,0.0000,-0.0500,0.2072,0.2072,0.2072,0.2072,1,5,1749741145807460018,1749741145802523678,1749741145807672300,1749741145807654301,1749741145807683341,1749741145807685007,1749741145808005283,1749741145808011033,1749741145808045865,1749741145802521511,0
54,1749741145812881335,1749741145812213743,1749741145812213743,1749741145812886044,16.2400,561.8565,33.9400,-0.0064,0.0927,0.2386,4.7658,-0.8781,-10.2352,0.0000,0.0000,0.0000,0.0586,-0.1294,0.0191,-0.0064,0.0187,0.0589,-0.0590,-1.7882,-0.1012,0.0011,0.0012,-0.0013,0.0000,324500903,1749741145812485897,-0.0590,-1.7882,-0.1012,0.9999,0.0056,-0.0020,0.0095,0.0000,0.0000,0.0000,0.00000000,0.00000000,0.000,0.000,0.000,0.000,0.000,0,0,0.000,0.000,0.000,0.000,0.000,0,0,0,0,0,0,0,0.0000,0.0000,-0.0500,0.0000,0.0000,0.0000,0.0000,0.0000,0.0000,0.0000,0.0000,0.0000,0.0000,0.0000,0.0000,0.0000,0.0000,0.0000,0.0000,0.0000,0.0000,0.0000,0.0000,0.0000,0.0000,0.0000,0.0000,0.0000,0.0000,0.0000,0.0000,0.0000,0.0000,0.0000,-0.0500,0.2072,0.2072,0.2072,0.2072,1,5,1749741145812218618,1749741145808064197,1749741145812509895,1749741145812494063,1749741145812520520,1749741145812522270,1749741145812842004,1749741145812847795,1749741145812882544,1749741145808062322,0
55,1749741145817716265,1749741145817281494,1749741145817281494,1749741145817720973,16.2431,561.8565,33.9400,0.1236,-0.1513,-0.1172,0.7137,-6.9146,-9.2642,0.0000,0.0000,0.0000,0.0593,-0.1295,0.0191,0.0369,-0.0379,0.0002,-0.0590,-1.7882,-0.1012,0.0011,0.0012,-0.0013,0.0000,324500903,1749741145812485897,-0.0590,-1.7882,-0.1012,0.9999,0.0056,-0.0020,0.0095,0.0000,0.0000,0.0000,0.00000000,0.00000000,0.000,0.000,0.000,0.000,0.000,0,0,0.000,0.000,0.000,0.000,0.000,0,0,0,0,0,0,0,0.0000,0.0000,-0.0500,0.0000,0.0000,0.0000,0.0000,0.0000,0.0000,0.0000,0.0000,0.0000,0.0000,0.0000,0.0000,0.0000,0.0000,0.0000,0.0000,0.0000,0.0000,0.0000,0.0000,0.0000,0.0000,0.0000,0.0000,0.0000,0.0000,0.0000,0.0000,0.0000,0.0000,0.0000,-0.0500,0.2072,0.2072,0.2072,0.2072,1,5,1749741145817285952,1749741145812900668,1749741145817341075,1749741145817327867,1749741145817351991,1749741145817353616,1749741145817677516,1749741145817683183,1749741145817717473,1749741145812898793,0
56,1749741145822257958,1749741145821596782,1749741145821596782,1749741145822262916,16.2456,561.8565,33.9400,-0.0011,-0.0234,-0.1321,-5.2137,4.4598,-9.6698,0.0000,0.0000,0.0000,0.0601,-0.1294,0.0187,0.0243,-0.0331,-0.0439,-0.0591,-1.7883,-0.1012,0.0006,0.0006,-0.0008,0.0000,324509095,1749741145821787564,-0.0591,-1.7883,-0.1012,0.9999,0.0056,-0.0020,0.0094,0.0000,0.0000,0.0000,0.00000000,0.00000000,0.000,0.000,0.000,0.000,0.000,0,0,0.000,0.000,0.000,0.000,0.000,0,0,0,0,0,0,0,0.0000,0.0000,-0.0500,0.0000,0.0000,0.0000,0.0000,0.0000,0.0000,0.0000,0.0000,0.0000,0.0000,0.0000,0.0000,0.0000,0.0000,0.0000,0.0000,0.0000,0.0000,0.0000,0.0000,0.0000,0.0000,0.0000,0.0000,0.0000,0.0000,0.0000,0.0000,0.0000,0.0000,0.0000,-0.0500,0.2072,0.2072,0.2072,0.2072,1,5,1749741145821601532,1749741145817735639,1749741145821813563,1749741145821795897,1749741145821825438,1749741145821827229,1749741145822218252,1749741145822223960,1749741145822259166,1749741145817733805,0
57,1749741145827584780,1749741145827176091,1749741145827176091,1749741145827589446,16.2480,561.8565,33.9400,-0.0724,0.1257,0.2354,0.7065,3.5362,-7.3030,0.0000,0.0000,0.0000,0.0590,-0.1292,0.0187,-0.0080,0.0198,0.0492,-0.0591,-1.7883,-0.1012,0.0006,0.0006,-0.0008,0.0000,324509095,1749741145821787564,-0.0591,-1.7883,-0.1012,0.9999,0.0056,-0.0020,0.0094,0.0000,0.0000,0.0000,0.00000000,0.00000000,0.000,0.000,0.000,0.000,0.000,0,0,0.000,0.000,0.000,0.000,0.000,0,0,0,0,0,0,0,0.0000,0.0000,-0.0500,0.0000,0.0000,0.0000,0.0000,0.0000,0.0000,0.0000,0.0000,0.0000,0.0000,0.0000,0.0000,0.0000,0.0000,0.0000,0.0000,0.0000,0.0000,0.0000,0.0000,0.0000,0.0000,0.0000,0.0000,0.0000,0.0000,0.0000,0.0000,0.0000,0.0000,0.0000,-0.0500,0.2072,0.2072,0.2072,0.2072,1,5,1749741145827179091,1749741145822278832,1749741145827215548,1749741145827202507,1749741145827226714,1749741145827228172,1749741145827547823,1749741145827552615,1749741145827585946,1749741145822276999,0
58,1749741145832617407,1749741145832026145,1749741145832026145,1749741145832622282,16.2506,561.8565,33.9400,0.1097,-0.0895,0.0948,4.7730,-5.5197,-7.7563,0.0000,0.0000,0.0000,0.0592,-0.1295,0.0189,0.0313,-0.0166,0.0644,-0.0590,-1.7882,-0.1012,0.0008,0.0011,-0.0010,0.0000,324517980,1749741145832217677,-0.0590,-1.7882,-0.1012,0.9999,0.0057,-0.0019,0.0094,0.0000,0.0000,0.0000,0.00000000,0.00000000,0.000,0.000,0.000,0.000,0.000,0,0,0.000,0.000,0.000,0.000,0.000,0,0,0,0,0,0,0,0.0000,0.0000,-0.0500,0.0000,0.0000,0.0000,0.0000,0.0000,0.0000,0.0000,0.0000,0.0000,0.0000,0.0000,0.0000,0.0000,0.0000,0.0000,0.0000,0.0000,0.0000,0.0000,0.0000,0.0000,0.0000,0.0000,0.0000,0.0000,0.0000,0.0000,0.0000,0.0000,0.0000,0.0000,-0.0500,0.2072,0.2072,0.2072,0.2072,1,5,1749741145832030686,1749741145827605612,1749741145832244051,1749741145832226510,1749741145832255383,1749741145832257133,1749741145832577493,1749741145832583659,1749741145832618616,1749741145827603737,0
59,1749741145837897940,1749741145837230597,1749741145837230597,1749741145837903064,16.2533,562.0776,33.9300,0.0117,-0.1108,-0.2557,-4.9143,1.0862,-11.4496,0.0000,0.0000,0.0000,0.0599,-0.1295,0.0183,0.0247,-0.0480,-0.0423,-0.0591,-1.7883,-0.1012,-0.0003,-0.0004,-0.0003,0.0000,324526265,1749741145837501792,-0.0591,-1.7883,-0.1012,0.9999,0.0056,-0.0020,0.0092,0.0000,0.0000,0.0000,0.00000000,0.00000000,0.000,0.000,0.000,0.000,0.000,0,0,0.000,0.000,0.000,0.000,0.000,0,0,0,0,0,0,0,0.0000,0.0000,-0.0500,0.0000,0.0000,0.0000,0.0000,0.0000,0.0000,0.0000,0.0000,0.0000,0.0000,0.0000,0.0000,0.0000,0.0000,0.0000,0.0000,0.0000,0.0000,0.0000,0.0000,0.0000,0.0000,0.0000,0.0000,0.0000,0.0000,0.0000,0.0000,0.0000,0.0000,0.0000,-0.0500,0.2072,0.2072,0.2072,0.2072,1,5,1749741145837235055,1749741145833306832,1749741145837525208,1749741145837509959,1749741145837536332,1749741145837538041,1749741145837858650,1749741145837864358,1749741145837899148,1749741145832635531,0
60,1749741145842560377,1749741145842060985,1749741145842060985,1749741145842565294,16.2550,562.0776,33.9300,-0.1289,0.1001,0.0415,-3.6402,6.5365,-11.4353,0.0000,0.0000,0.0000,0.0591,-0.1293,0.0183,-0.0265,0.0014,-0.0143,-0.0591,-1.7883,-0.1012,-0.0003,-0.0004,-0.0003,0.0000,324526265,1749741145837501792,-0.0591,-1.7883,-0.1012,0.9999,0.0056,-0.0020,0.0092,0.0000,0.0000,0.0000,0.00000000,0.00000000,0.000,0.000,0.000,0.000,0.000,0,0,0.000,0.000,0.000,0.000,0.000,0,0,0,0,0,0,0,0.0000,0.0000,-0.0500,0.0000,0.0000,0.0000,0.0000,0.0000,0.0000,0.0000,0.0000,0.0000,0.0000,0.0000,0.0000,0.0000,0.0000,0.0000,0.0000,0.0000,0.0000,0.0000,0.0000,0.0000,0.0000,0.0000,0.0000,0.0000,0.0000,0.0000,0.0000,0.0000,0.0000,0.0000,-0.0500,0.2072,0.2072,0.2072,0.2072,1,5,1749741145842065443,1749741145837917689,1749741145842183479,1749741145842169896,1749741145842195312,1749741145842197062,1749741145842520796,1749741145842526504,1749741145842561585,1749741145837915814,0
61,1749741145847856034,1749741145847249438,1749741145847249438,1749741145847860700,16.2555,562.0776,33.9300,0.0213,0.0352,0.2802,4.6389,-3.4693,-9.5075,0.0000,0.0000,0.0000,0.0583,-0.1294,0.0191,-0.0105,0.0126,0.0838,-0.0590,-1.7882,-0.1012,0.0003,0.0005,-0.0009,0.0000,324534389,1749741145847439721,-0.0590,-1.7882,-0.1012,0.9999,0.0057,-0.0019,0.0096,0.0000,0.0000,0.0000,0.00000000,0.00000000,0.000,0.000,0.000,0.000,0.000,0,0,0.000,0.000,0.000,0.000,0.000,0,0,0,0,0,0,0,0.0000,0.0000,-0.0500,0.0000,0.0000,0.0000,0.0000,0.0000,0.0000,0.0000,0.0000,0.0000,0.0000,0.0000,0.0000,0.0000,0.0000,0.0000,0.0000,0.0000,0.0000,0.0000,0.0000,0.0000,0.0000,0.0000,0.0000,0.0000,0.0000,0.0000,0.0000,0.0000,0.0000,0.0000,-0.0500,0.2072,0.2072,0.2072,0.2072,1,5,1749741145847253938,1749741145842580668,1749741145847466303,1749741145847448345,1749741145847477344,1749741145847478969,1749741145847817285,1749741145847822369,1749741145847857200,1749741145842578543,0
62,1749741145852156989,1749741145851731801,1749741145851731801,1749741145852161697,16.2576,562.0776,33.9300,0.1587,-0.1353,-0.1736,-1.6381,-7.1610,-11.2062,0.0000,0.0000,0.0000,0.0595,-0.1295,0.0191,0.0459,-0.0367,-0.0020,-0.0590,-1.7882,-0.1012,0.0003,0.0005,-0.0009,0.0000,324534389,1749741145847439721,-0.0590,-1.7882,-0.1012,0.9999,0.0057,-0.0019,0.0096,0.0000,0.0000,0.0000,0.00000000,0.00000000,0.000,0.000,0.000,0.000,0.000,0,0,0.000,0.000,0.000,0.000,0.000,0,0,0,0,0,0,0,0.0000,0.0000,-0.0500,0.0000,0.0000,0.0000,0.0000,0.0000,0.0000,0.0000,0.0000,0.0000,0.0000,0.0000,0.0000,0.0000,0.0000,0.0000,0.0000,0.0000,0.0000,0.0000,0.0000,0.0000,0.0000,0.0000,0.0000,0.0000,0.0000,0.0000,0.0000,0.0000,0.0000,0.0000,-0.0500,0.2072,0.2072,0.2072,0.2072,1,5,1749741145851736176,1749741145847875866,1749741145851783632,1749741145851770550,1749741145851795090,1749741145851796715,1749741145852119074,1749741145852124657,1749741145852158156,1749741145847873991,0
63,1749741145857710716,1749741145857121620,1749741145857121620,1749741145857715382,16.2589,562.0776,33.9300,-0.1332,-0.0213,-0.1641,-5.4915,6.4839,-9.4049,0.0000,0.0000,0.0000,0.0596,-0.1295,0.0185,-0.0138,-0.0315,-0.0560,-0.0591,-1.7883,-0.1012,-0.0001,-0.0005,-0.0005,0.0000,324542779,1749741145857313069,-0.0591,-1.7883,-0.1012,0.9999,0.0056,-0.0020,0.0093,0.0000,0.0000,0.0000,0.00000000,0.00000000,0.000,0.000,0.000,0.000,0.000,0,0,0.000,0.000,0.000,0.000,0.000,0,0,0,0,0,0,0,0.0000,0.0000,-0.0500,0.0000,0.0000,0.0000,0.0000,0.0000,0.0000,0.0000,0.0000,0.0000,0.0000,0.0000,0.0000,0.0000,0.0000,0.0000,0.0000,0.0000,0.0000,0.0000,0.0000,0.0000,0.0000,0.0000,0.0000,0.0000,0.0000,0.0000,0.0000,0.0000,0.0000,0.0000,-0.0500,0.2072,0.2072,0.2072,0.2072,1,5,1749741145857126078,1749741145852176780,1749741145857338734,1749741145857321235,1749741145857350025,1749741145857351775,1749741145857671551,1749741145857677176,1749741145857711924,1749741145852174863,0
64,1749741145862456025,1749741145861932384,1749741145861932384,1749741145862460774,16.2601,562.0776,33.9300,-0.0426,0.1545,0.2258,3.1828,3.3185,-8.9731,0.0000,0.0000,0.0000,0.0585,-0.1292,0.0185,-0.0234,0.0305,0.0379,-0.0591,-1.7883,-0.1012,-0.0001,-0.0005,-0.0005,0.0000,324542779,1749741145857313069,-0.0591,-1.7883,-0.1012,0.9999,0.0056,-0.0020,0.0093,0.0000,0.0000,0.0000,0.00000000,0.00000000,0.000,0.000,0.000,0.000,0.000,0,0,0.000,0.000,0.000,0.000,0.000,0,0,0,0,0,0,0,0.0000,0.0000,-0.0500,0.0000,0.0000,0.0000,0.0000,0.0000,0.0000,0.0000,0.0000,0.0000,0.0000,0.0000,0.0000,0.0000,0.0000,0.0000,0.0000,0.0000,0.0000,0.0000,0.0000,0.0000,0.0000,0.0000,0.0000,0.0000,0.0000,0.0000,0.0000,0.0000,0.0000,0.0000,-0.0500,0.2072,0.2072,0.2072,0.2072,1,5,1749741145861936842,1749741145857729798,1749741145861992256,1749741145861978965,1749741145862002838,1749741145862004547,1749741145862416651,1749741145862422693,1749741145862457233,1749741145857727924,0
65,1749741145867774097,1749741145867182709,1749741145867182709,1749741145867778763,16.2608,562.0776,33.9300,0.1651,-0.1438,-0.0032,3.5349,-8.3310,-5.5614,0.0000,0.0000,0.0000,0.0590,-0.1295,0.0193,0.0394,-0.0276,0.0242,-0.0590,-1.7882,-0.1013,0.0003,0.0002,-0.0011,0.0000,324551409,1749741145867373825,-0.0590,-1.7882,-0.1013,0.9999,0.0056,-0.0019,0.0097,0.0000,0.0000,0.0000,0.00000000,0.00000000,0.000,0.000,0.000,0.000,0.000,0,0,0.000,0.000,0.000,0.000,0.000,0,0,0,0,0,0,0,0.0000,0.0000,-0.0500,0.0000,0.0000,0.0000,0.0000,0.0000,0.0000,0.0000,0.0000,0.0000,0.0000,0.0000,0.0000,0.0000,0.0000,0.0000,0.0000,0.0000,0.0000,0.0000,0.0000,0.0000,0.0000,0.0000,0.0000,0.0000,0.0000,0.0000,0.0000,0.0000,0.0000,0.0000,-0.0500,0.2072,0.2072,0.2072,0.2072,1,5,1749741145867187084,1749741145862475857,1749741145867400198,1749741145867382324,1749741145867411698,1749741145867413489,1749741145867735015,1749741145867740682,1749741145867775263,1749741145862473940,0
66,1749741145872131591,1749741145871538662,1749741145871538662,1749741145872136299,16.2618,562.0776,33.9300,0.0373,-0.0778,-0.2162,-4.9383,4.5603,-12.7332,0.0000,0.0000,0.0000,0.0601,-0.1294,0.0186,0.0387,-0.0443,-0.0559,-0.0591,-1.7883,-0.1012,-0.0004,-0.0013,0.0002,0.0000,324559267,1749741145871730027,-0.0591,-1.7883,-0.1012,0.9999,0.0056,-0.0020,0.0093,0.0000,0.0000,0.0000,0.00000000,0.00000000,0.000,0.000,0.000,0.000,0.000,0,0,0.000,0.000,0.000,0.000,0.000,0,0,0,0,0,0,0,0.0000,0.0000,-0.0500,0.0000,0.0000,0.0000,0.0000,0.0000,0.0000,0.0000,0.0000,0.0000,0.0000,0.0000,0.0000,0.0000,0.0000,0.0000,0.0000,0.0000,0.0000,0.0000,0.0000,0.0000,0.0000,0.0000,0.0000,0.0000,0.0000,0.0000,0.0000,0.0000,0.0000,0.0000,-0.0500,0.2072,0.2072,0.2072,0.2072,1,5,1749741145871543411,1749741145867793179,1749741145871756943,1749741145871738652,1749741145871768317,1749741145871770067,1749741145872092051,1749741145872097884,1749741145872132799,1749741145867791346,0
67,1749741145876958187,1749741145876523000,1749741145876523000,1749741145876963103,16.2639,562.0776,33.9300,-0.1886,0.1140,0.1097,-1.2094,7.7639,-9.9871,0.0000,0.0000,0.0000,0.0586,-0.1292,0.0186,-0.0370,0.0084,-0.0007,-0.0591,-1.7883,-0.1012,-0.0004,-0.0013,0.0002,0.0000,324559267,1749741145871730027,-0.0591,-1.7883,-0.1012,0.9999,0.0056,-0.0020,0.0093,0.0000,0.0000,0.0000,0.00000000,0.00000000,0.000,0.000,0.000,0.000,0.000,0,0,0.000,0.000,0.000,0.000,0.000,0,0,0,0,0,0,0,0.0000,0.0000,-0.0500,0.0000,0.0000,0.0000,0.0000,0.0000,0.0000,0.0000,0.0000,0.0000,0.0000,0.0000,0.0000,0.0000,0.0000,0.0000,0.0000,0.0000,0.0000,0.0000,0.0000,0.0000,0.0000,0.0000,0.0000,0.0000,0.0000,0.0000,0.0000,0.0000,0.0000,0.0000,-0.0500,0.2072,0.2072,0.2072,0.2072,1,5,1749741145876527500,1749741145872151173,1749741145876582205,1749741145876569164,1749741145876592830,1749741145876594496,1749741145876918981,1749741145876924647,1749741145876959395,1749741145872148840,0
68,1749741145882421002,1749741145881833489,1749741145881833489,1749741145882425835,16.2659,562.0776,33.9300,0.1119,-0.0533,0.2131,5.9298,-6.3140,-9.9704,0.0000,0.0000,0.0000,0.0582,-0.1295,0.0193,0.0126,-0.0121,0.0705,-0.0590,-1.7882,-0.1013,0.0000,-0.0005,-0.0002,0.0000,324567847,1749741145882021063,-0.0590,-1.7882,-0.1013,0.9999,0.0056,-0.0019,0.0097,0.0000,0.0000,0.0000,0.00000000,0.00000000,0.000,0.000,0.000,0.000,0.000,0,0,0.000,0.000,0.000,0.000,0.000,0,0,0,0,0,0,0,0.0000,0.0000,-0.0500,0.0000,0.0000,0.0000,0.0000,0.0000,0.0000,0.0000,0.0000,0.0000,0.0000,0.0000,0.0000,0.0000,0.0000,0.0000,0.0000,0.0000,0.0000,0.0000,0.0000,0.0000,0.0000,0.0000,0.0000,0.0000,0.0000,0.0000,0.0000,0.0000,0.0000,0.0000,-0.0500,0.2072,0.2072,0.2072,0.2072,1,5,1749741145881837239,1749741145876978478,1749741145882045395,1749741145882029313,1749741145882057561,1749741145882059270,1749741145882381295,1749741145882387295,1749741145882422168,1749741145876976561,0
69,1749741145887536126,1749741145886874741,1749741145886874741,1749741145887540834,16.2671,561.9005,33.9400,0.1023,-0.1140,-0.2514,-4.8161,-2.8902,-11.6309,0.0000,0.0000,0.0000,0.0594,-0.1293,0.0184,0.0425,-0.0461,-0.0368,-0.0590,-1.7883,-0.1012,-0.0001,-0.0021,0.0008,0.0000,324575825,1749741145887137270,-0.0590,-1.7883,-0.1012,0.9999,0.0056,-0.0022,0.0092,0.0000,0.0000,0.0000,0.00000000,0.00000000,0.000,0.000,0.000,0.000,0.000,0,0,0.000,0.000,0.000,0.000,0.000,0,0,0,0,0,0,0,0.0000,0.0000,-0.0500,0.0000,0.0000,0.0000,0.0000,0.0000,0.0000,0.0000,0.0000,0.0000,0.0000,0.0000,0.0000,0.0000,0.0000,0.0000,0.0000,0.0000,0.0000,0.0000,0.0000,0.0000,0.0000,0.0000,0.0000,0.0000,0.0000,0.0000,0.0000,0.0000,0.0000,0.0000,-0.0500,0.2072,0.2072,0.2072,0.2072,1,5,1749741145886879449,1749741145882947934,1749741145887161061,1749741145887145645,1749741145887171602,1749741145887173560,1749741145887496211,1749741145887502544,1749741145887537334,1749741145882438918,0
70,1749741145892625667,1749741145892189480,1749741145892189480,1749741145892630375,16.2695,561.9005,33.9400,-0.1385,0.0458,-0.0352,-5.6615,6.8141,-10.1946,0.0000,0.0000,0.0000,0.0590,-0.1294,0.0184,-0.0178,-0.0155,-0.0362,-0.0590,-1.7883,-0.1012,-0.0001,-0.0021,0.0008,0.0000,324575825,1749741145887137270,-0.0590,-1.7883,-0.1012,0.9999,0.0056,-0.0022,0.0092,0.0000,0.0000,0.0000,0.00000000,0.00000000,0.000,0.000,0.000,0.000,0.000,0,0,0.000,0.000,0.000,0.000,0.000,0,0,0,0,0,0,0,0.0000,0.0000,-0.0500,0.0000,0.0000,0.0000,0.0000,0.0000,0.0000,0.0000,0.0000,0.0000,0.0000,0.0000,0.0000,0.0000,0.0000,0.0000,0.0000,0.0000,0.0000,0.0000,0.0000,0.0000,0.0000,0.0000,0.0000,0.0000,0.0000,0.0000,0.0000,0.0000,0.0000,0.0000,-0.0500,0.2072,0.2072,0.2072,0.2072,1,5,1749741145892193938,1749741145887555750,1749741145892249352,1749741145892235686,1749741145892260310,1749741145892261935,1749741145892586502,1749741145892592169,1749741145892626875,1749741145887553625,0
71,1749741145897391600,1749741145896732465,1749741145896732465,1749741145897396308,16.2717,561.9005,33.9400,0.0703,0.1065,0.3579,4.3491,-2.5003,-8.6105,0.0000,0.0000,0.0000,0.0584,-0.1294,0.0191,0.0115,0.0252,0.0952,-0.0590,-1.7882,-0.1013,0.0001,-0.0011,0.0004,0.0000,324584227,1749741145896987369,-0.0590,-1.7882,-0.1013,0.9999,0.0056,-0.0020,0.0096,0.0000,0.0000,0.0000,0.00000000,0.00000000,0.000,0.000,0.000,0.000,0.000,0,0,0.000,0.000,0.000,0.000,0.000,0,0,0,0,0,0,0,0.0000,0.0000,-0.0500,0.0000,0.0000,0.0000,0.0000,0.0000,0.0000,0.0000,0.0000,0.0000,0.0000,0.0000,0.0000,0.0000,0.0000,0.0000,0.0000,0.0000,0.0000,0.0000,0.0000,0.0000,0.0000,0.0000,0.0000,0.0000,0.0000,0.0000,0.0000,0.0000,0.0000,0.0000,-0.0500,0.2072,0.2072,0.2072,0.2072,1,5,1749741145896736923,1749741145892645499,1749741145897013285,1749741145896995869,1749741145897025326,1749741145897027076,1749741145897352435,1749741145897358143,1749741145897392766,1749741145892643625,0
72,1749741145902540263,1749741145902035080,1749741145902035080,1749741145902545221,16.2719,561.9005,33.9400,0.1427,-0.1822,-0.1289,0.4191,-6.7638,-4.4734,0.0000,0.0000,0.0000,0.0594,-0.1297,0.0191,0.0553,-0.0439,0.0205,-0.0590,-1.7882,-0.1013,0.0001,-0.0011,0.0004,0.0000,324584227,1749741145896987369,-0.0590,-1.7882,-0.1013,0.9999,0.0056,-0.0020,0.0096,0.0000,0.0000,0.0000,0.00000000,0.00000000,0.000,0.000,0.000,0.000,0.000,0,0,0.000,0.000,0.000,0.000,0.000,0,0,0,0,0,0,0,0.0000,0.0000,-0.0500,0.0000,0.0000,0.0000,0.0000,0.0000,0.0000,0.0000,0.0000,0.0000,0.0000,0.0000,0.0000,0.0000,0.0000,0.0000,0.0000,0.0000,0.0000,0.0000,0.0000,0.0000,0.0000,0.0000,0.0000,0.0000,0.0000,0.0000,0.0000,0.0000,0.0000,0.0000,-0.0500,0.2072,0.2072,0.2072,0.2072,1,5,1749741145902039496,1749741145897411390,1749741145902164657,1749741145902081244,1749741145902176365,1749741145902178031,1749741145902501224,1749741145902507098,1749741145902541430,1749741145897409474,0
73,1749741145907345194,1749741145906753181,1749741145906753181,1749741145907350569,16.2724,561.9005,33.9400,-0.1246,0.0107,-0.2322,-6.7752,7.2232,-10.6002,0.0000,0.0000,0.0000,0.0596,-0.1295,0.0183,-0.0047,-0.0257,-0.0638,-0.0590,-1.7883,-0.1012,-0.0000,-0.0018,0.0009,0.0000,324592781,1749741145906945630,-0.0590,-1.7883,-0.1012,0.9999,0.0056,-0.0021,0.0092,0.0000,0.0000,0.0000,0.00000000,0.00000000,0.000,0.000,0.000,0.000,0.000,0,0,0.000,0.000,0.000,0.000,0.000,0,0,0,0,0,0,0,0.0000,0.0000,-0.0500,0.0000,0.0000,0.0000,0.0000,0.0000,0.0000,0.0000,0.0000,0.0000,0.0000,0.0000,0.0000,0.0000,0.0000,0.0000,0.0000,0.0000,0.0000,0.0000,0.0000,0.0000,0.0000,0.0000,0.0000,0.0000,0.0000,0.0000,0.0000,0.0000,0.0000,0.0000,-0.0500,0.2072,0.2072,0.2072,0.2072,1,5,1749741145906758014,1749741145902560054,1749741145906972212,1749741145906953921,1749741145906983545,1749741145906985295,1749741145907306237,1749741145907312279,1749741145907346360,1749741145902558304,0
74,1749741145912767261,1749741145912108460,1749741145912108460,1749741145912772011,16.2741,561.9005,33.9400,-0.0852,0.1236,0.2493,2.6224,3.7157,-9.2976,0.0000,0.0000,0.0000,0.0582,-0.1295,0.0191,-0.0315,0.0240,0.0406,-0.0590,-1.7882,-0.1013,0.0002,-0.0001,-0.0003,0.0000,324601084,1749741145912370197,-0.0590,-1.7882,-0.1013,0.9999,0.0056,-0.0020,0.0096,0.0000,0.0000,0.0000,0.00000000,0.00000000,0.000,0.000,0.000,0.000,0.000,0,0,0.000,0.000,0.000,0.000,0.000,0,0,0,0,0,0,0,0.0000,0.0000,-0.0500,0.0000,0.0000,0.0000,0.0000,0.0000,0.0000,0.0000,0.0000,0.0000,0.0000,0.0000,0.0000,0.0000,0.0000,0.0000,0.0000,0.0000,0.0000,0.0000,0.0000,0.0000,0.0000,0.0000,0.0000,0.0000,0.0000,0.0000,0.0000,0.0000,0.0000,0.0000,-0.0500,0.2072,0.2072,0.2072,0.2072,1,5,1749741145912112876,1749741145907366693,1749741145912394029,1749741145912378488,1749741145912405112,1749741145912406778,1749741145912727304,1749741145912733429,1749741145912768469,1749741145907364568,0
75,1749741145917450114,1749741145917015177,1749741145917015177,1749741145917454822,16.2751,561.9005,33.9400,0.2152,-0.1225,0.1140,5.3191,-9.6230,-6.2986,0.0000,0.0000,0.0000,0.0588,-0.1297,0.0191,0.0507,-0.0248,0.0650,-0.0590,-1.7882,-0.1013,0.0002,-0.0001,-0.0003,0.0000,324601084,1749741145912370197,-0.0590,-1.7882,-0.1013,0.9999,0.0056,-0.0020,0.0096,0.0000,0.0000,0.0000,0.00000000,0.00000000,0.000,0.000,0.000,0.000,0.000,0,0,0.000,0.000,0.000,0.000,0.000,0,0,0,0,0,0,0,0.0000,0.0000,-0.0500,0.0000,0.0000,0.0000,0.0000,0.0000,0.0000,0.0000,0.0000,0.0000,0.0000,0.0000,0.0000,0.0000,0.0000,0.0000,0.0000,0.0000,0.0000,0.0000,0.0000,0.0000,0.0000,0.0000,0.0000,0.0000,0.0000,0.0000,0.0000,0.0000,0.0000,0.0000,-0.0500,0.2072,0.2072,0.2072,0.2072,1,5,1749741145917019677,1749741145912787926,1749741145917074716,1749741145917061841,1749741145917085674,1749741145917087340,1749741145917410866,1749741145917416532,1749741145917451322,1749741145912786093,0
76,1749741145922394496,1749741145921805275,1749741145921805275,1749741145922399204,16.2758,561.9005,33.9400,0.0138,-0.0618,-0.2983,-6.3297,3.8281,-13.2962,0.0000,0.0000,0.0000,0.0600,-0.1294,0.0184,0.0384,-0.0371,-0.0561,-0.0591,-1.7883,-0.1012,-0.0001,-0.0010,0.0004,0.0000,324609436,1749741145921993016,-0.0591,-1.7883,-0.1012,0.9999,0.0056,-0.0021,0.0092,0.0000,0.0000,0.0000,0.00000000,0.00000000,0.000,0.000,0.000,0.000,0.000,0,0,0.000,0.000,0.000,0.000,0.000,0,0,0,0,0,0,0,0.0000,0.0000,-0.0500,0.0000,0.0000,0.0000,0.0000,0.0000,0.0000,0.0000,0.0000,0.0000,0.0000,0.0000,0.0000,0.0000,0.0000,0.0000,0.0000,0.0000,0.0000,0.0000,0.0000,0.0000,0.0000,0.0000,0.0000,0.0000,0.0000,0.0000,0.0000,0.0000,0.0000,0.0000,-0.0500,0.2072,0.2072,0.2072,0.2072,1,5,1749741145921809108,1749741145917469405,1749741145922017765,1749741145922001182,1749741145922029181,1749741145922030972,1749741145922354123,1749741145922360414,1749741145922395663,1749741145917467530,0
77,1749741145927470788,1749741145927035351,1749741145927035351,1749741145927475455,16.2758,561.9005,33.9400,-0.2471,0.0714,0.0405,-2.4356,6.5964,-10.4976,0.0000,0.0000,0.0000,0.0583,-0.1295,0.0184,-0.0568,-0.0010,-0.0239,-0.0591,-1.7883,-0.1012,-0.0001,-0.0010,0.0004,0.0000,324609436,1749741145921993016,-0.0591,-1.7883,-0.1012,0.9999,0.0056,-0.0021,0.0092,0.0000,0.0000,0.0000,0.00000000,0.00000000,0.000,0.000,0.000,0.000,0.000,0,0,0.000,0.000,0.000,0.000,0.000,0,0,0,0,0,0,0,0.0000,0.0000,-0.0500,0.0000,0.0000,0.0000,0.0000,0.0000,0.0000,0.0000,0.0000,0.0000,0.0000,0.0000,0.0000,0.0000,0.0000,0.0000,0.0000,0.0000,0.0000,0.0000,0.0000,0.0000,0.0000,0.0000,0.0000,0.0000,0.0000,0.0000,0.0000,0.0000,0.0000,0.0000,-0.0500,0.2072,0.2072,0.2072,0.2072,1,5,1749741145927040101,1749741145922414245,1749741145927095265,1749741145927081932,1749741145927105973,1749741145927107931,1749741145927431374,1749741145927437040,1749741145927471997,1749741145922412329,0
78,1749741145932681032,1749741145932089270,1749741145932089270,1749741145932685782,16.2746,561.9005,33.9400,0.2514,0.0266,0.2855,6.3968,-6.8141,-9.8153,0.0000,0.0000,0.0000,0.0587,-0.1295,0.0194,0.0460,0.0082,0.0792,-0.0590,-1.7882,-0.1013,0.0001,-0.0001,-0.0003,0.0000,324617650,1749741145932280885,-0.0590,-1.7882,-0.1013,0.9999,0.0056,-0.0019,0.0097,0.0000,0.0000,0.0000,0.00000000,0.00000000,0.000,0.000,0.000,0.000,0.000,0,0,0.000,0.000,0.000,0.000,0.000,0,0,0,0,0,0,0,0.0000,0.0000,-0.0500,0.0000,0.0000,0.0000,0.0000,0.0000,0.0000,0.0000,0.0000,0.0000,0.0000,0.0000,0.0000,0.0000,0.0000,0.0000,0.0000,0.0000,0.0000,0.0000,0.0000,0.0000,0.0000,0.0000,0.0000,0.0000,0.0000,0.0000,0.0000,0.0000,0.0000,0.0000,-0.0500,0.2072,0.2072,0.2072,0.2072,1,5,1749741145932094228,1749741145927490162,1749741145932306884,1749741145932289135,1749741145932318717,1749741145932320467,1749741145932642034,1749741145932647742,1749741145932682199,1749741145927488287,0
79,1749741145937892193,1749741145937218809,1749741145937218809,1749741145937896818,16.2751,561.8936,33.9500,0.0788,-0.1694,-0.2418,-3.3002,-2.9261,-11.5856,0.0000,0.0000,0.0000,0.0598,-0.1295,0.0186,0.0569,-0.0510,-0.0278,-0.0591,-1.7883,-0.1012,-0.0004,-0.0015,0.0004,0.0000,324626087,1749741145937491546,-0.0591,-1.7883,-0.1012,0.9999,0.0057,-0.0020,0.0093,0.0000,0.0000,0.0000,0.00000000,0.00000000,0.000,0.000,0.000,0.000,0.000,0,0,0.000,0.000,0.000,0.000,0.000,0,0,0,0,0,0,0,0.0000,0.0000,-0.0500,0.0000,0.0000,0.0000,0.0000,0.0000,0.0000,0.0000,0.0000,0.0000,0.0000,0.0000,0.0000,0.0000,0.0000,0.0000,0.0000,0.0000,0.0000,0.0000,0.0000,0.0000,0.0000,0.0000,0.0000,0.0000,0.0000,0.0000,0.0000,0.0000,0.0000,0.0000,-0.0500,0.2072,0.2072,0.2072,0.2072,1,5,1749741145937223684,1749741145933079638,1749741145937515420,1749741145937499796,1749741145937526003,1749741145937527794,1749741145937852112,1749741145937858320,1749741145937893360,1749741145932698323,0
80,1749741145942800702,1749741145942370431,1749741145942370431,1749741145942805618,16.2748,561.8936,33.9500,-0.1513,0.1023,-0.0969,-7.0003,9.7307,-10.9820,0.0000,0.0000,0.0000,0.0594,-0.1292,0.0186,-0.0125,0.0001,-0.0508,-0.0591,-1.7883,-0.1012,-0.0004,-0.0015,0.0004,0.0000,324626087,1749741145937491546,-0.0591,-1.7883,-0.1012,0.9999,0.0057,-0.0020,0.0093,0.0000,0.0000,0.0000,0.00000000,0.00000000,0.000,0.000,0.000,0.000,0.000,0,0,0.000,0.000,0.000,0.000,0.000,0,0,0,0,0,0,0,0.0000,0.0000,-0.0500,0.0000,0.0000,0.0000,0.0000,0.0000,0.0000,0.0000,0.0000,0.0000,0.0000,0.0000,0.0000,0.0000,0.0000,0.0000,0.0000,0.0000,0.0000,0.0000,0.0000,0.0000,0.0000,0.0000,0.0000,0.0000,0.0000,0.0000,0.0000,0.0000,0.0000,0.0000,-0.0500,0.2072,0.2072,0.2072,0.2072,1,5,1749741145942374348,1749741145937911192,1749741145942424679,1749741145942410888,1749741145942436053,1749741145942437720,1749741145942761329,1749741145942767078,1749741145942802118,1749741145937909317,0
81,1749741145947508845,1749741145946922916,1749741145946922916,1749741145947513595,16.2751,561.8936,33.9500,0.0202,0.0245,0.2780,4.5862,-1.7897,-8.3337,0.0000,0.0000,0.0000,0.0583,-0.1297,0.0194,-0.0016,0.0082,0.0588,-0.0590,-1.7882,-0.1013,-0.0001,-0.0007,-0.0000,0.0000,324634643,1749741145947110198,-0.0590,-1.7882,-0.1013,0.9999,0.0056,-0.0019,0.0097,0.0000,0.0000,0.0000,0.00000000,0.00000000,0.000,0.000,0.000,0.000,0.000,0,0,0.000,0.000,0.000,0.000,0.000,0,0,0,0,0,0,0,0.0000,0.0000,-0.0500,0.0000,0.0000,0.0000,0.0000,0.0000,0.0000,0.0000,0.0000,0.0000,0.0000,0.0000,0.0000,0.0000,0.0000,0.0000,0.0000,0.0000,0.0000,0.0000,0.0000,0.0000,0.0000,0.0000,0.0000,0.0000,0.0000,0.0000,0.0000,0.0000,0.0000,0.0000,-0.0500,0.2072,0.2072,0.2072,0.2072,1,5,1749741145946927124,1749741145942821117,1749741145947134572,1749741145947118406,1749741145947145863,1749741145947147655,1749741145947468764,1749741145947474722,1749741145947510054,1749741145942819201,0
82,1749741145952735755,1749741145952301818,1749741145952301818,1749741145952740422,16.2736,561.8936,33.9500,0.1609,-0.1449,-0.0682,0.6323,-7.4362,-7.7683,0.0000,0.0000,0.0000,0.0593,-0.1298,0.0194,0.0526,-0.0428,0.0165,-0.0590,-1.7882,-0.1013,-0.0001,-0.0007,-0.0000,0.0000,324634643,1749741145947110198,-0.0590,-1.7882,-0.1013,0.9999,0.0056,-0.0019,0.0097,0.0000,0.0000,0.0000,0.00000000,0.00000000,0.000,0.000,0.000,0.000,0.000,0,0,0.000,0.000,0.000,0.000,0.000,0,0,0,0,0,0,0,0.0000,0.0000,-0.0500,0.0000,0.0000,0.0000,0.0000,0.0000,0.0000,0.0000,0.0000,0.0000,0.0000,0.0000,0.0000,0.0000,0.0000,0.0000,0.0000,0.0000,0.0000,0.0000,0.0000,0.0000,0.0000,0.0000,0.0000,0.0000,0.0000,0.0000,0.0000,0.0000,0.0000,0.0000,-0.0500,0.2072,0.2072,0.2072,0.2072,1,5,1749741145952306235,1749741145947529844,1749741145952360565,1749741145952347691,1749741145952371440,1749741145952373106,1749741145952696340,1749741145952702257,1749741145952736922,1749741145947527969,0
83,1749741145957060251,1749741145956480821,1749741145956480821,1749741145957064959,16.2738,561.8936,33.9500,-0.1598,0.0138,-0.2386,-5.5346,8.2879,-11.0941,0.0000,0.0000,0.0000,0.0593,-0.1295,0.0184,-0.0182,-0.0239,-0.0686,-0.0591,-1.7883,-0.1012,-0.0004,-0.0015,0.0005,0.0000,324642661,1749741145956662062,-0.0591,-1.7883,-0.1012,0.9999,0.0056,-0.0020,0.0092,0.0000,0.0000,0.0000,0.00000000,0.00000000,0.000,0.000,0.000,0.000,0.000,0,0,0.000,0.000,0.000,0.000,0.000,0,0,0,0,0,0,0,0.0000,0.0000,-0.0500,0.0000,0.0000,0.0000,0.0000,0.0000,0.0000,0.0000,0.0000,0.0000,0.0000,0.0000,0.0000,0.0000,0.0000,0.0000,0.0000,0.0000,0.0000,0.0000,0.0000,0.0000,0.0000,0.0000,0.0000,0.0000,0.0000,0.0000,0.0000,0.0000,0.0000,0.0000,-0.0500,0.2072,0.2072,0.2072,0.2072,1,5,1749741145956484779,1749741145952756296,1749741145956687519,1749741145956670729,1749741145956698685,1749741145956700310,1749741145957020711,1749741145957027086,1749741145957061418,1749741145952754463,0
84,1749741145962833051,1749741145962165334,1749741145962165334,1749741145962837759,16.2751,561.8936,33.9500,-0.0724,0.0810,0.2546,2.6033,2.1127,-9.8988,0.0000,0.0000,0.0000,0.0579,-0.1296,0.0190,-0.0363,0.0110,0.0392,-0.0590,-1.7882,-0.1013,0.0001,-0.0001,-0.0001,0.0000,324651057,1749741145962436070,-0.0590,-1.7882,-0.1013,0.9999,0.0055,-0.0019,0.0095,0.0000,0.0000,0.0000,0.00000000,0.00000000,0.000,0.000,0.000,0.000,0.000,0,0,0.000,0.000,0.000,0.000,0.000,0,0,0,0,0,0,0,0.0000,0.0000,-0.0500,0.0000,0.0000,0.0000,0.0000,0.0000,0.0000,0.0000,0.0000,0.0000,0.0000,0.0000,0.0000,0.0000,0.0000,0.0000,0.0000,0.0000,0.0000,0.0000,0.0000,0.0000,0.0000,0.0000,0.0000,0.0000,0.0000,0.0000,0.0000,0.0000,0.0000,0.0000,-0.0500,0.2072,0.2072,0.2072,0.2072,1,5,1749741145962169958,1749741145957080500,1749741145962460444,1749741145962444736,1749741145962471610,1749741145962473318,1749741145962792886,1749741145962799302,1749741145962834259,1749741145957078209,0
85,1749741145967270749,1749741145966835437,1749741145966835437,1749741145967275832,16.2755,561.8936,33.9500,0.2589,-0.1033,0.0959,3.7791,-9.9029,-10.2972,0.0000,0.0000,0.0000,0.0589,-0.1297,0.0190,0.0621,-0.0271,0.0581,-0.0590,-1.7882,-0.1013,0.0001,-0.0001,-0.0001,0.0000,324651057,1749741145962436070,-0.0590,-1.7882,-0.1013,0.9999,0.0055,-0.0019,0.0095,0.0000,0.0000,0.0000,0.00000000,0.00000000,0.000,0.000,0.000,0.000,0.000,0,0,0.000,0.000,0.000,0.000,0.000,0,0,0,0,0,0,0,0.0000,0.0000,-0.0500,0.0000,0.0000,0.0000,0.0000,0.0000,0.0000,0.0000,0.0000,0.0000,0.0000,0.0000,0.0000,0.0000,0.0000,0.0000,0.0000,0.0000,0.0000,0.0000,0.0000,0.0000,0.0000,0.0000,0.0000,0.0000,0.0000,0.0000,0.0000,0.0000,0.0000,0.0000,-0.0500,0.2072,0.2072,0.2072,0.2072,1,5,1749741145966839896,1749741145962894006,1749741145966895268,1749741145966881727,1749741145966906017,1749741145966907684,1749741145967231335,1749741145967237043,1749741145967271958,1749741145962891965,0
86,1749741145972732939,1749741145972141385,1749741145972141385,1749741145972737689,16.2758,561.8936,33.9500,-0.1364,-0.0799,-0.2887,-4.9455,3.8281,-11.9101,0.0000,0.0000,0.0000,0.0593,-0.1296,0.0183,-0.0041,-0.0447,-0.0575,-0.0591,-1.7883,-0.1012,-0.0001,-0.0009,0.0004,0.0000,324659760,1749741145972332792,-0.0591,-1.7883,-0.1012,0.9999,0.0056,-0.0021,0.0092,0.0000,0.0000,0.0000,0.00000000,0.00000000,0.000,0.000,0.000,0.000,0.000,0,0,0.000,0.000,0.000,0.000,0.000,0,0,0,0,0,0,0,0.0000,0.0000,-0.0500,0.0000,0.0000,0.0000,0.0000,0.0000,0.0000,0.0000,0.0000,0.0000,0.0000,0.0000,0.0000,0.0000,0.0000,0.0000,0.0000,0.0000,0.0000,0.0000,0.0000,0.0000,0.0000,0.0000,0.0000,0.0000,0.0000,0.0000,0.0000,0.0000,0.0000,0.0000,-0.0500,0.2072,0.2072,0.2072,0.2072,1,5,1749741145972145843,1749741145967290873,1749741145972358791,1749741145972341084,1749741145972370582,1749741145972372332,1749741145972693566,1749741145972699358,1749741145972734148,1749741145967288665,0
87,1749741145977164513,1749741145976728493,1749741145976728493,1749741145977169221,16.2760,561.8936,33.9500,-0.1012,0.1470,0.1300,-1.4753,6.3356,-9.3739,0.0000,0.0000,0.0000,0.0583,-0.1292,0.0183,-0.0364,0.0192,0.0050,-0.0591,-1.7883,-0.1012,-0.0001,-0.0009,0.0004,0.0000,324659760,1749741145972332792,-0.0591,-1.7883,-0.1012,0.9999,0.0056,-0.0021,0.0092,0.0000,0.0000,0.0000,0.00000000,0.00000000,0.000,0.000,0.000,0.000,0.000,0,0,0.000,0.000,0.000,0.000,0.000,0,0,0,0,0,0,0,0.0000,0.0000,-0.0500,0.0000,0.0000,0.0000,0.0000,0.0000,0.0000,0.0000,0.0000,0.0000,0.0000,0.0000,0.0000,0.0000,0.0000,0.0000,0.0000,0.0000,0.0000,0.0000,0.0000,0.0000,0.0000,0.0000,0.0000,0.0000,0.0000,0.0000,0.0000,0.0000,0.0000,0.0000,-0.0500,0.2072,0.2072,0.2072,0.2072,1,5,1749741145976732909,1749741145972752480,1749741145976788198,1749741145976774991,1749741145976799239,1749741145976800906,1749741145977124765,1749741145977131307,1749741145977165721,1749741145972750647,0
88,1749741145982639328,1749741145981960319,1749741145981960319,1749741145982643994,16.2751,561.8936,33.9500,0.2365,-0.1044,0.2162,5.7549,-9.0990,-6.0815,0.0000,0.0000,0.0000,0.0587,-0.1298,0.0191,0.0545,-0.0220,0.0754,-0.0590,-1.7882,-0.1013,0.0003,-0.0001,-0.0002,0.0000,324667859,1749741145982239514,-0.0590,-1.7882,-0.1013,0.9999,0.0056,-0.0020,0.0095,0.0000,0.0000,0.0000,0.00000000,0.00000000,0.000,0.000,0.000,0.000,0.000,0,0,0.000,0.000,0.000,0.000,0.000,0,0,0,0,0,0,0,0.0000,0.0000,-0.0500,0.0000,0.0000,0.0000,0.0000,0.0000,0.0000,0.0000,0.0000,0.0000,0.0000,0.0000,0.0000,0.0000,0.0000,0.0000,0.0000,0.0000,0.0000,0.0000,0.0000,0.0000,0.0000,0.0000,0.0000,0.0000,0.0000,0.0000,0.0000,0.0000,0.0000,0.0000,-0.0500,0.2072,0.2072,0.2072,0.2072,1,5,1749741145981964736,1749741145977183887,1749741145982265679,1749741145982247597,1749741145982277179,1749741145982278970,1749741145982599871,1749741145982606038,1749741145982640536,1749741145977181971,0
89,1749741145986791998,1749741145986355770,1749741145986355770,1749741145986796873,16.2746,561.9173,33.9300,0.0937,-0.0788,-0.2258,-5.5777,-1.0073,-10.2805,0.0000,0.0000,0.0000,0.0601,-0.1295,0.0191,0.0676,-0.0409,-0.0250,-0.0590,-1.7882,-0.1013,0.0003,-0.0001,-0.0002,0.0000,324667859,1749741145982239514,-0.0590,-1.7882,-0.1013,0.9999,0.0056,-0.0020,0.0095,0.0000,0.0000,0.0000,0.00000000,0.00000000,0.000,0.000,0.000,0.000,0.000,0,0,0.000,0.000,0.000,0.000,0.000,0,0,0,0,0,0,0,0.0000,0.0000,-0.0500,0.0000,0.0000,0.0000,0.0000,0.0000,0.0000,0.0000,0.0000,0.0000,0.0000,0.0000,0.0000,0.0000,0.0000,0.0000,0.0000,0.0000,0.0000,0.0000,0.0000,0.0000,0.0000,0.0000,0.0000,0.0000,0.0000,0.0000,0.0000,0.0000,0.0000,0.0000,-0.0500,0.2072,0.2072,0.2072,0.2072,1,5,1749741145986360645,1749741145983032517,1749741145986415684,1749741145986402184,1749741145986426475,1749741145986428100,1749741145986751959,1749741145986757917,1749741145986793207,1749741145982656535,0
90,1749741145992808953,1749741145992182734,1749741145992182734,1749741145992813744,16.2743,561.9173,33.9300,-0.2322,0.0746,-0.0660,-3.3696,10.7977,-8.2311,0.0000,0.0000,0.0000,0.0591,-0.1295,0.0184,-0.0323,-0.0024,-0.0387,-0.0591,-1.7883,-0.1012,-0.0001,-0.0007,0.0004,0.0000,324676181,1749741145992409389,-0.0591,-1.7883,-0.1012,0.9999,0.0056,-0.0021,0.0092,0.0000,0.0000,0.0000,0.00000000,0.00000000,0.000,0.000,0.000,0.000,0.000,0,0,0.000,0.000,0.000,0.000,0.000,0,0,0,0,0,0,0,0.0000,0.0000,-0.0500,0.0000,0.0000,0.0000,0.0000,0.0000,0.0000,0.0000,0.0000,0.0000,0.0000,0.0000,0.0000,0.0000,0.0000,0.0000,0.0000,0.0000,0.0000,0.0000,0.0000,0.0000,0.0000,0.0000,0.0000,0.0000,0.0000,0.0000,0.0000,0.0000,0.0000,0.0000,-0.0500,0.2072,0.2072,0.2072,0.2072,1,5,1749741145992187650,1749741145986811873,1749741145992435346,1749741145992417472,1749741145992446387,1749741145992448096,1749741145992769496,1749741145992775205,1749741145992810119,1749741145986809998,0
91,1749741145997171988,1749741145996592517,1749741145996592517,1749741145997176613,16.2736,561.9173,33.9300,0.1225,0.0000,0.2280,4.0833,-4.8641,-6.8950,0.0000,0.0000,0.0000,0.0584,-0.1298,0.0192,0.0193,-0.0016,0.0502,-0.0590,-1.7882,-0.1012,0.0008,0.0013,-0.0008,0.0000,324684046,1749741145996770758,-0.0590,-1.7882,-0.1012,0.9999,0.0056,-0.0020,0.0096,0.0000,0.0000,0.0000,0.00000000,0.00000000,0.000,0.000,0.000,0.000,0.000,0,0,0.000,0.000,0.000,0.000,0.000,0,0,0,0,0,0,0,0.0000,0.0000,-0.0500,0.0000,0.0000,0.0000,0.0000,0.0000,0.0000,0.0000,0.0000,0.0000,0.0000,0.0000,0.0000,0.0000,0.0000,0.0000,0.0000,0.0000,0.0000,0.0000,0.0000,0.0000,0.0000,0.0000,0.0000,0.0000,0.0000,0.0000,0.0000,0.0000,0.0000,0.0000,-0.0500,0.2072,0.2072,0.2072,0.2072,1,5,1749741145996596725,1749741145992828202,1749741145996795507,1749741145996779008,1749741145996807590,1749741145996809298,1749741145997132199,1749741145997138907,1749741145997173155,1749741145992826285,0
92,1749741146002205283,1749741146001659310,1749741146001659310,1749741146002209991,16.2736,561.9173,33.9300,0.1353,-0.1438,-0.1225,-2.6488,-3.2994,-8.2693,0.0000,0.0000,0.0000,0.0596,-0.1300,0.0192,0.0579,-0.0490,-0.0074,-0.0590,-1.7882,-0.1012,0.0008,0.0013,-0.0008,0.0000,324684046,1749741145996770758,-0.0590,-1.7882,-0.1012,0.9999,0.0056,-0.0020,0.0096,0.0000,0.0000,0.0000,0.00000000,0.00000000,0.000,0.000,0.000,0.000,0.000,0,0,0.000,0.000,0.000,0.000,0.000,0,0,0,0,0,0,0,0.0000,0.0000,-0.0500,0.0000,0.0000,0.0000,0.0000,0.0000,0.0000,0.0000,0.0000,0.0000,0.0000,0.0000,0.0000,0.0000,0.0000,0.0000,0.0000,0.0000,0.0000,0.0000,0.0000,0.0000,0.0000,0.0000,0.0000,0.0000,0.0000,0.0000,0.0000,0.0000,0.0000,0.0000,-0.0500,0.2072,0.2072,0.2072,0.2072,1,5,1749741146001664059,1749741145997192279,1749741146001719015,1749741146001705766,1749741146001729723,1749741146001731389,1749741146002165910,1749741146002172034,1749741146002206491,1749741145997190363,0
93,1749741146007137082,1749741146006699895,1749741146006699895,1749741146007141790,16.2748,561.9173,33.9300,-0.2056,0.0927,-0.1097,-4.4090,8.7018,-13.7137,0.0000,0.0000,0.0000,0.0590,-0.1296,0.0192,-0.0299,-0.0018,-0.0415,-0.0590,-1.7882,-0.1012,0.0008,0.0013,-0.0008,0.0000,324684046,1749741145996770758,-0.0590,-1.7882,-0.1012,0.9999,0.0056,-0.0020,0.0096,0.0000,0.0000,0.0000,0.00000000,0.00000000,0.000,0.000,0.000,0.000,0.000,0,0,0.000,0.000,0.000,0.000,0.000,0,0,0,0,0,0,0,0.0000,0.0000,-0.0500,0.0000,0.0000,0.0000,0.0000,0.0000,0.0000,0.0000,0.0000,0.0000,0.0000,0.0000,0.0000,0.0000,0.0000,0.0000,0.0000,0.0000,0.0000,0.0000,0.0000,0.0000,0.0000,0.0000,0.0000,0.0000,0.0000,0.0000,0.0000,0.0000,0.0000,0.0000,-0.0500,0.2072,0.2072,0.2072,0.2072,1,5,1749741146006704812,1749741146002225074,1749741146006759726,1749741146006746726,1749741146006770309,1749741146006771975,1749741146007097459,1749741146007103376,1749741146007138290,1749741146002223199,0
94,1749741146012164335,1749741146011695942,1749741146011695942,1749741146012169043,16.2741,561.9173,33.9300,0.0756,0.0469,0.2621,4.1647,-2.0576,-11.1156,0.0000,0.0000,0.0000,0.0582,-0.1297,0.0192,0.0053,0.0144,0.0597,-0.0590,-1.7882,-0.1012,0.0008,0.0013,-0.0008,0.0000,324684046,1749741145996770758,-0.0590,-1.7882,-0.1012,0.9999,0.0056,-0.0020,0.0096,0.0000,0.0000,0.0000,0.00000000,0.00000000,0.000,0.000,0.000,0.000,0.000,0,0,0.000,0.000,0.000,0.000,0.000,0,0,0,0,0,0,0,0.0000,0.0000,-0.0500,0.0000,0.0000,0.0000,0.0000,0.0000,0.0000,0.0000,0.0000,0.0000,0.0000,0.0000,0.0000,0.0000,0.0000,0.0000,0.0000,0.0000,0.0000,0.0000,0.0000,0.0000,0.0000,0.0000,0.0000,0.0000,0.0000,0.0000,0.0000,0.0000,0.0000,0.0000,-0.0500,0.2072,0.2072,0.2072,0.2072,1,5,1749741146011700400,1749741146007157498,1749741146011787854,1749741146011774355,1749741146011798687,1749741146011800312,1749741146012124837,1749741146012130504,1749741146012165502,1749741146007155331,0
95,1749741146017126550,1749741146016546078,1749741146016546078,1749741146017131091,16.2731,561.9173,33.9300,0.1513,-0.1768,-0.0852,-0.2610,-6.9481,-10.4118,0.0000,0.0000,0.0000,0.0592,-0.1300,0.0185,0.0539,-0.0493,0.0114,-0.0591,-1.7883,-0.1012,0.0006,0.0008,-0.0005,0.0000,324693758,1749741146016729528,-0.0591,-1.7883,-0.1012,0.9999,0.0056,-0.0021,0.0092,0.0000,0.0000,0.0000,0.00000000,0.00000000,0.000,0.000,0.000,0.000,0.000,0,0,0.000,0.000,0.000,0.000,0.000,0,0,0,0,0,0,0,0.0000,0.0000,-0.0500,0.0000,0.0000,0.0000,0.0000,0.0000,0.0000,0.0000,0.0000,0.0000,0.0000,0.0000,0.0000,0.0000,0.0000,0.0000,0.0000,0.0000,0.0000,0.0000,0.0000,0.0000,0.0000,0.0000,0.0000,0.0000,0.0000,0.0000,0.0000,0.0000,0.0000,0.0000,-0.0500,0.2072,0.2072,0.2072,0.2072,1,5,1749741146016550578,1749741146012183751,1749741146016756152,1749741146016738027,1749741146016766984,1749741146016768651,1749741146017087969,1749741146017093635,1749741146017127717,1749741146012181876,0
96,1749741146022548492,1749741146021989728,1749741146021989728,1749741146022553200,16.2734,561.9173,33.9300,-0.1278,0.0788,-0.1672,-6.4447,6.5318,-13.0839,0.0000,0.0000,0.0000,0.0593,-0.1295,0.0185,-0.0067,-0.0066,-0.0482,-0.0591,-1.7883,-0.1012,0.0006,0.0008,-0.0005,0.0000,324693758,1749741146016729528,-0.0591,-1.7883,-0.1012,0.9999,0.0056,-0.0021,0.0092,0.0000,0.0000,0.0000,0.00000000,0.00000000,0.000,0.000,0.000,0.000,0.000,0,0,0.000,0.000,0.000,0.000,0.000,0,0,0,0,0,0,0,0.0000,0.0000,-0.0500,0.0000,0.0000,0.0000,0.0000,0.0000,0.0000,0.0000,0.0000,0.0000,0.0000,0.0000,0.0000,0.0000,0.0000,0.0000,0.0000,0.0000,0.0000,0.0000,0.0000,0.0000,0.0000,0.0000,0.0000,0.0000,0.0000,0.0000,0.0000,0.0000,0.0000,0.0000,-0.0500,0.2072,0.2072,0.2072,0.2072,1,5,1749741146021994103,1749741146017145674,1749741146022087473,1749741146022075099,1749741146022182593,1749741146022184802,1749741146022508577,1749741146022514535,1749741146022549659,1749741146017143757,0
97,1749741146027958101,1749741146027397379,1749741146027397379,1749741146027962768,16.2736,561.9173,33.9300,-0.0298,0.0458,0.2237,3.3265,-0.5264,-5.5876,0.0000,0.0000,0.0000,0.0583,-0.1298,0.0191,-0.0144,0.0109,0.0425,-0.0590,-1.7882,-0.1013,0.0010,0.0013,-0.0009,0.0000,324701303,1749741146027559413,-0.0590,-1.7882,-0.1013,0.9999,0.0056,-0.0020,0.0095,0.0000,0.0000,0.0000,0.00000000,0.00000000,0.000,0.000,0.000,0.000,0.000,0,0,0.000,0.000,0.000,0.000,0.000,0,0,0,0,0,0,0,0.0000,0.0000,-0.0500,0.0000,0.0000,0.0000,0.0000,0.0000,0.0000,0.0000,0.0000,0.0000,0.0000,0.0000,0.0000,0.0000,0.0000,0.0000,0.0000,0.0000,0.0000,0.0000,0.0000,0.0000,0.0000,0.0000,0.0000,0.0000,0.0000,0.0000,0.0000,0.0000,0.0000,0.0000,-0.0500,0.2072,0.2072,0.2072,0.2072,1,5,1749741146027402295,1749741146022568116,1749741146027585328,1749741146027567704,1749741146027596036,1749741146027597952,1749741146027918603,1749741146027924270,1749741146027959310,1749741146022566241,0
98,1749741146033008228,1749741146032416049,1749741146032416049,1749741146033012936,16.2741,561.9173,33.9300,0.2194,-0.1182,0.0554,2.8068,-7.9123,-7.0310,0.0000,0.0000,0.0000,0.0594,-0.1300,0.0185,0.0636,-0.0322,0.0468,-0.0591,-1.7883,-0.1012,-0.0004,0.0001,0.0000,0.0000,324709919,1749741146032607165,-0.0591,-1.7883,-0.1012,0.9999,0.0055,-0.0021,0.0092,0.0000,0.0000,0.0000,0.00000000,0.00000000,0.000,0.000,0.000,0.000,0.000,0,0,0.000,0.000,0.000,0.000,0.000,0,0,0,0,0,0,0,0.0000,0.0000,-0.0500,0.0000,0.0000,0.0000,0.0000,0.0000,0.0000,0.0000,0.0000,0.0000,0.0000,0.0000,0.0000,0.0000,0.0000,0.0000,0.0000,0.0000,0.0000,0.0000,0.0000,0.0000,0.0000,0.0000,0.0000,0.0000,0.0000,0.0000,0.0000,0.0000,0.0000,0.0000,-0.0500,0.2072,0.2072,0.2072,0.2072,1,5,1749741146032420507,1749741146027977642,1749741146032633372,1749741146032615456,1749741146032645204,1749741146032646913,1749741146032968355,1749741146032974397,1749741146033009395,1749741146027975767,0
99,1749741146037527340,1749741146036993741,1749741146036993741,1749741146037532048,16.2746,561.8421,33.9400,-0.1278,-0.0469,-0.2674,-4.2222,6.4050,-8.5460,0.0000,0.0000,0.0000,0.0597,-0.1298,0.0185,-0.0002,-0.0371,-0.0579,-0.0591,-1.7883,-0.1012,-0.0004,0.0001,0.0000,0.0000,324709919,1749741146032607165,-0.0591,-1.7883,-0.1012,0.9999,0.0055,-0.0021,0.0092,0.0000,0.0000,0.0000,0.00000000,0.00000000,0.000,0.000,0.000,0.000,0.000,0,0,0.000,0.000,0.000,0.000,0.000,0,0,0,0,0,0,0,0.0000,0.0000,-0.0500,0.0000,0.0000,0.0000,0.0000,0.0000,0.0000,0.0000,0.0000,0.0000,0.0000,0.0000,0.0000,0.0000,0.0000,0.0000,0.0000,0.0000,0.0000,0.0000,0.0000,0.0000,0.0000,0.0000,0.0000,0.0000,0.0000,0.0000,0.0000,0.0000,0.0000,0.0000,-0.0500,0.2072,0.2072,0.2072,0.2072,1,5,1749741146036998241,1749741146033406375,1749741146037151317,1749741146037138359,1749741146037162899,1749741146037164649,1749741146037488300,1749741146037493966,1749741146037528548,1749741146033025936,0
100,1749741146042048534,1749741146041558767,1749741146041558767,1749741146042053201,16.2748,561.8421,33.9400,-0.1800,0.1438,0.1459,0.7951,6.8954,-9.0327,0.0000,0.0000,0.0000,0.0580,-0.1294,0.0189,-0.0602,0.0232,0.0100,-0.0590,-1.7882,-0.1012,0.0001,0.0009,-0.0003,0.0000,324717817,1749741146041652262,-0.0590,-1.7882,-0.1012,0.9999,0.0056,-0.0019,0.0095,0.0000,0.0000,0.0000,0.00000000,0.00000000,0.000,0.000,0.000,0.000,0.000,0,0,0.000,0.000,0.000,0.000,0.000,0,0,0,0,0,0,0,0.0000,0.0000,-0.0500,0.0000,0.0000,0.0000,0.0000,0.0000,0.0000,0.0000,0.0000,0.0000,0.0000,0.0000,0.0000,0.0000,0.0000,0.0000,0.0000,0.0000,0.0000,0.0000,0.0000,0.0000,0.0000,0.0000,0.0000,0.0000,0.0000,0.0000,0.0000,0.0000,0.0000,0.0000,-0.0500,0.2072,0.2072,0.2072,0.2072,1,5,1749741146041563183,1749741146037547130,1749741146041678553,1749741146041660595,1749741146041689469,1749741146041691594,1749741146042009661,1749741146042015328,1749741146042049701,1749741146037545214,0
101,1749741146047473976,1749741146046920128,1749741146046920128,1749741146047478643,16.2755,561.8421,33.9400,0.2610,-0.1150,0.1854,5.1395,-8.4530,-7.1026,0.0000,0.0000,0.0000,0.0585,-0.1298,0.0189,0.0469,-0.0229,0.0685,-0.0590,-1.7882,-0.1012,0.0001,0.0009,-0.0003,0.0000,324717817,1749741146041652262,-0.0590,-1.7882,-0.1012,0.9999,0.0056,-0.0019,0.0095,0.0000,0.0000,0.0000,0.00000000,0.00000000,0.000,0.000,0.000,0.000,0.000,0,0,0.000,0.000,0.000,0.000,0.000,0,0,0,0,0,0,0,0.0000,0.0000,-0.0500,0.0000,0.0000,0.0000,0.0000,0.0000,0.0000,0.0000,0.0000,0.0000,0.0000,0.0000,0.0000,0.0000,0.0000,0.0000,0.0000,0.0000,0.0000,0.0000,0.0000,0.0000,0.0000,0.0000,0.0000,0.0000,0.0000,0.0000,0.0000,0.0000,0.0000,0.0000,-0.0500,0.2072,0.2072,0.2072,0.2072,1,5,1749741146046923837,1749741146042068325,1749741146047099661,1749741146047087245,1749741146047110577,1749741146047112619,1749741146047434603,1749741146047440353,1749741146047475143,1749741146042066450,0
102,1749741146052586100,1749741146052059043,1749741146052059043,1749741146052590808,16.2765,561.8421,33.9400,-0.0096,-0.0927,-0.2599,-3.6738,-0.6891,-10.1899,0.0000,0.0000,0.0000,0.0594,-0.1296,0.0185,0.0281,-0.0461,-0.0410,-0.0591,-1.7883,-0.1012,-0.0003,0.0002,0.0000,0.0000,324726117,1749741146052130873,-0.0591,-1.7883,-0.1012,0.9999,0.0055,-0.0020,0.0093,0.0000,0.0000,0.0000,0.00000000,0.00000000,0.000,0.000,0.000,0.000,0.000,0,0,0.000,0.000,0.000,0.000,0.000,0,0,0,0,0,0,0,0.0000,0.0000,-0.0500,0.0000,0.0000,0.0000,0.0000,0.0000,0.0000,0.0000,0.0000,0.0000,0.0000,0.0000,0.0000,0.0000,0.0000,0.0000,0.0000,0.0000,0.0000,0.0000,0.0000,0.0000,0.0000,0.0000,0.0000,0.0000,0.0000,0.0000,0.0000,0.0000,0.0000,0.0000,-0.0500,0.2072,0.2072,0.2072,0.2072,1,5,1749741146052063584,1749741146047493434,1749741146052156580,1749741146052139080,1749741146052168162,1749741146052169912,1749741146052546977,1749741146052553018,1749741146052587308,1749741146047491559,0
103,1749741146057240538,1749741146056644068,1749741146056644068,1749741146057245621,16.2767,561.8421,33.9400,-0.1395,0.1161,0.0490,-1.6692,8.3430,-11.0512,0.0000,0.0000,0.0000,0.0587,-0.1293,0.0190,-0.0278,0.0079,-0.0110,-0.0590,-1.7882,-0.1012,0.0011,0.0012,-0.0009,0.0000,324734463,1749741146056830975,-0.0590,-1.7882,-0.1012,0.9999,0.0057,-0.0020,0.0095,0.0000,0.0000,0.0000,0.00000000,0.00000000,0.000,0.000,0.000,0.000,0.000,0,0,0.000,0.000,0.000,0.000,0.000,0,0,0,0,0,0,0,0.0000,0.0000,-0.0500,0.0000,0.0000,0.0000,0.0000,0.0000,0.0000,0.0000,0.0000,0.0000,0.0000,0.0000,0.0000,0.0000,0.0000,0.0000,0.0000,0.0000,0.0000,0.0000,0.0000,0.0000,0.0000,0.0000,0.0000,0.0000,0.0000,0.0000,0.0000,0.0000,0.0000,0.0000,-0.0500,0.2072,0.2072,0.2072,0.2072,1,5,1749741146056648234,1749741146052605266,1749741146056855765,1749741146056839350,1749741146056867557,1749741146056869306,1749741146057200415,1749741146057206832,1749741146057241747,1749741146052603349,0
104,1749741146062788849,1749741146062057427,1749741146062057427,1749741146062793557,16.2758,561.8421,33.9400,0.1182,-0.0863,0.2131,4.9239,-7.0486,-7.2219,0.0000,0.0000,0.0000,0.0583,-0.1298,0.0186,0.0209,-0.0235,0.0637,-0.0591,-1.7883,-0.1012,-0.0003,0.0003,-0.0002,0.0000,324742856,1749741146062390244,-0.0591,-1.7883,-0.1012,0.9999,0.0055,-0.0021,0.0093,0.0000,0.0000,0.0000,0.00000000,0.00000000,0.000,0.000,0.000,0.000,0.000,0,0,0.000,0.000,0.000,0.000,0.000,0,0,0,0,0,0,0,0.0000,0.0000,-0.0500,0.0000,0.0000,0.0000,0.0000,0.0000,0.0000,0.0000,0.0000,0.0000,0.0000,0.0000,0.0000,0.0000,0.0000,0.0000,0.0000,0.0000,0.0000,0.0000,0.0000,0.0000,0.0000,0.0000,0.0000,0.0000,0.0000,0.0000,0.0000,0.0000,0.0000,0.0000,-0.0500,0.2072,0.2072,0.2072,0.2072,1,5,1749741146062061926,1749741146057260287,1749741146062415409,1749741146062398452,1749741146062426867,1749741146062428658,1749741146062749643,1749741146062755392,1749741146062790057,1749741146057258412,0
105,1749741146067270879,1749741146066679950,1749741146066679950,1749741146067275920,16.2748,561.8421,33.9400,0.1055,-0.0756,-0.1896,-4.5264,-1.1963,-10.6599,0.0000,0.0000,0.0000,0.0596,-0.1295,0.0189,0.0491,-0.0409,-0.0207,-0.0590,-1.7882,-0.1012,0.0013,0.0011,-0.0009,0.0000,324751045,1749741146066871149,-0.0590,-1.7882,-0.1012,0.9999,0.0056,-0.0020,0.0095,0.0000,0.0000,0.0000,0.00000000,0.00000000,0.000,0.000,0.000,0.000,0.000,0,0,0.000,0.000,0.000,0.000,0.000,0,0,0,0,0,0,0,0.0000,0.0000,-0.0500,0.0000,0.0000,0.0000,0.0000,0.0000,0.0000,0.0000,0.0000,0.0000,0.0000,0.0000,0.0000,0.0000,0.0000,0.0000,0.0000,0.0000,0.0000,0.0000,0.0000,0.0000,0.0000,0.0000,0.0000,0.0000,0.0000,0.0000,0.0000,0.0000,0.0000,0.0000,-0.0500,0.2072,0.2072,0.2072,0.2072,1,5,1749741146066684658,1749741146062808515,1749741146066897231,1749741146066879273,1749741146066908272,1749741146066910022,1749741146067230881,1749741146067236756,1749741146067272046,1749741146062806557,0
106,1749741146072327089,1749741146071736785,1749741146071736785,1749741146072331797,16.2758,561.8421,33.9400,-0.2120,0.0309,-0.0682,-3.8438,7.4457,-9.7318,0.0000,0.0000,0.0000,0.0586,-0.1297,0.0187,-0.0379,-0.0169,-0.0366,-0.0591,-1.7883,-0.1012,0.0003,0.0004,-0.0006,0.0000,324759287,1749741146071928400,-0.0591,-1.7883,-0.1012,0.9999,0.0055,-0.0021,0.0094,0.0000,0.0000,0.0000,0.00000000,0.00000000,0.000,0.000,0.000,0.000,0.000,0,0,0.000,0.000,0.000,0.000,0.000,0,0,0,0,0,0,0,0.0000,0.0000,-0.0500,0.0000,0.0000,0.0000,0.0000,0.0000,0.0000,0.0000,0.0000,0.0000,0.0000,0.0000,0.0000,0.0000,0.0000,0.0000,0.0000,0.0000,0.0000,0.0000,0.0000,0.0000,0.0000,0.0000,0.0000,0.0000,0.0000,0.0000,0.0000,0.0000,0.0000,0.0000,-0.0500,0.2072,0.2072,0.2072,0.2072,1,5,1749741146071741576,1749741146067290545,1749741146071954857,1749741146071936941,1749741146071965898,1749741146071967523,1749741146072287758,1749741146072293466,1749741146072328256,1749741146067288420,0
107,1749741146077493419,1749741146076789536,1749741146076789536,1749741146077498127,16.2755,561.8421,33.9400,0.1736,0.0629,0.2653,4.9862,-3.9262,-10.9796,0.0000,0.0000,0.0000,0.0585,-0.1297,0.0187,0.0326,0.0097,0.0640,-0.0591,-1.7883,-0.1012,0.0003,0.0004,-0.0006,0.0000,324759287,1749741146071928400,-0.0591,-1.7883,-0.1012,0.9999,0.0055,-0.0021,0.0094,0.0000,0.0000,0.0000,0.00000000,0.00000000,0.000,0.000,0.000,0.000,0.000,0,0,0.000,0.000,0.000,0.000,0.000,0,0,0,0,0,0,0,0.0000,0.0000,-0.0500,0.0000,0.0000,0.0000,0.0000,0.0000,0.0000,0.0000,0.0000,0.0000,0.0000,0.0000,0.0000,0.0000,0.0000,0.0000,0.0000,0.0000,0.0000,0.0000,0.0000,0.0000,0.0000,0.0000,0.0000,0.0000,0.0000,0.0000,0.0000,0.0000,0.0000,0.0000,-0.0500,0.2072,0.2072,0.2072,0.2072,1,5,1749741146076793995,1749741146072346796,1749741146076849075,1749741146076835909,1749741146076860075,1749741146076861658,1749741146077455170,1749741146077460295,1749741146077494585,1749741146072344921,0
108,1749741146082581835,1749741146081906785,1749741146081906785,1749741146082586585,16.2765,561.8421,33.9400,0.0692,-0.1726,-0.1385,-1.2501,-3.4932,-7.0883,0.0000,0.0000,0.0000,0.0593,-0.1299,0.0188,0.0448,-0.0511,-0.0035,-0.0590,-1.7883,-0.1012,0.0008,0.0007,-0.0006,0.0000,324767543,1749741146082182313,-0.0590,-1.7883,-0.1012,0.9999,0.0057,-0.0021,0.0094,0.0000,0.0000,0.0000,0.00000000,0.00000000,0.000,0.000,0.000,0.000,0.000,0,0,0.000,0.000,0.000,0.000,0.000,0,0,0,0,0,0,0,0.0000,0.0000,-0.0500,0.0000,0.0000,0.0000,0.0000,0.0000,0.0000,0.0000,0.0000,0.0000,0.0000,0.0000,0.0000,0.0000,0.0000,0.0000,0.0000,0.0000,0.0000,0.0000,0.0000,0.0000,0.0000,0.0000,0.0000,0.0000,0.0000,0.0000,0.0000,0.0000,0.0000,0.0000,-0.0500,0.2072,0.2072,0.2072,0.2072,1,5,1749741146081911327,1749741146077513376,1749741146082208104,1749741146082190521,1749741146082219061,1749741146082220770,1749741146082542879,1749741146082548545,1749741146082583044,1749741146077511376,0
109,1749741146087620255,1749741146087034450,1749741146087034450,1749741146087624963,16.2760,561.8205,33.9500,-0.1822,0.0671,-0.1598,-5.5466,9.5034,-10.8722,0.0000,0.0000,0.0000,0.0588,-0.1295,0.0189,-0.0309,-0.0117,-0.0556,-0.0590,-1.7883,-0.1012,-0.0001,0.0005,-0.0004,0.0000,324775792,1749741146087220524,-0.0590,-1.7883,-0.1012,0.9999,0.0056,-0.0022,0.0094,0.0000,0.0000,0.0000,0.00000000,0.00000000,0.000,0.000,0.000,0.000,0.000,0,0,0.000,0.000,0.000,0.000,0.000,0,0,0,0,0,0,0,0.0000,0.0000,-0.0500,0.0000,0.0000,0.0000,0.0000,0.0000,0.0000,0.0000,0.0000,0.0000,0.0000,0.0000,0.0000,0.0000,0.0000,0.0000,0.0000,0.0000,0.0000,0.0000,0.0000,0.0000,0.0000,0.0000,0.0000,0.0000,0.0000,0.0000,0.0000,0.0000,0.0000,0.0000,-0.0500,0.2072,0.2072,0.2072,0.2072,1,5,1749741146087039241,1749741146083585036,1749741146087245773,1749741146087228815,1749741146087257522,1749741146087259272,1749741146087580215,1749741146087586298,1749741146087621421,1749741146082599043,0
110,1749741146092403061,1749741146091967708,1749741146091967708,1749741146092407811,16.2748,561.8205,33.9500,0.0735,0.0586,0.2770,3.5540,-2.0146,-8.7560,0.0000,0.0000,0.0000,0.0580,-0.1297,0.0189,0.0039,0.0117,0.0553,-0.0590,-1.7883,-0.1012,-0.0001,0.0005,-0.0004,0.0000,324775792,1749741146087220524,-0.0590,-1.7883,-0.1012,0.9999,0.0056,-0.0022,0.0094,0.0000,0.0000,0.0000,0.00000000,0.00000000,0.000,0.000,0.000,0.000,0.000,0,0,0.000,0.000,0.000,0.000,0.000,0,0,0,0,0,0,0,0.0000,0.0000,-0.0500,0.0000,0.0000,0.0000,0.0000,0.0000,0.0000,0.0000,0.0000,0.0000,0.0000,0.0000,0.0000,0.0000,0.0000,0.0000,0.0000,0.0000,0.0000,0.0000,0.0000,0.0000,0.0000,0.0000,0.0000,0.0000,0.0000,0.0000,0.0000,0.0000,0.0000,0.0000,-0.0500,0.2072,0.2072,0.2072,0.2072,1,5,1749741146091972249,1749741146087640295,1749741146092027371,1749741146092014164,1749741146092038329,1749741146092040037,1749741146092363647,1749741146092369313,1749741146092404270,1749741146087638462,0
111,1749741146097145912,1749741146096554899,1749741146096554899,1749741146097150620,16.2753,561.8205,33.9500,0.2194,-0.1225,-0.0075,1.4058,-6.7878,-8.9636,0.0000,0.0000,0.0000,0.0593,-0.1299,0.0186,0.0758,-0.0330,0.0344,-0.0590,-1.7883,-0.1012,0.0004,0.0005,-0.0002,0.0000,324784198,1749741146096746265,-0.0590,-1.7883,-0.1012,0.9999,0.0057,-0.0021,0.0093,0.0000,0.0000,0.0000,0.00000000,0.00000000,0.000,0.000,0.000,0.000,0.000,0,0,0.000,0.000,0.000,0.000,0.000,0,0,0,0,0,0,0,0.0000,0.0000,-0.0500,0.0000,0.0000,0.0000,0.0000,0.0000,0.0000,0.0000,0.0000,0.0000,0.0000,0.0000,0.0000,0.0000,0.0000,0.0000,0.0000,0.0000,0.0000,0.0000,0.0000,0.0000,0.0000,0.0000,0.0000,0.0000,0.0000,0.0000,0.0000,0.0000,0.0000,0.0000,-0.0500,0.2072,0.2072,0.2072,0.2072,1,5,1749741146096559441,1749741146092423977,1749741146096772597,1749741146096754639,1749741146096784096,1749741146096785888,1749741146097106664,1749741146097112372,1749741146097147078,1749741146092422019,0
112,1749741146102053254,1749741146101617484,1749741146101617484,1749741146102057920,16.2748,561.8205,33.9500,-0.1758,0.0138,-0.2248,-5.7885,7.5462,-10.3951,0.0000,0.0000,0.0000,0.0591,-0.1295,0.0186,-0.0081,-0.0174,-0.0520,-0.0590,-1.7883,-0.1012,0.0004,0.0005,-0.0002,0.0000,324784198,1749741146096746265,-0.0590,-1.7883,-0.1012,0.9999,0.0057,-0.0021,0.0093,0.0000,0.0000,0.0000,0.00000000,0.00000000,0.000,0.000,0.000,0.000,0.000,0,0,0.000,0.000,0.000,0.000,0.000,0,0,0,0,0,0,0,0.0000,0.0000,-0.0500,0.0000,0.0000,0.0000,0.0000,0.0000,0.0000,0.0000,0.0000,0.0000,0.0000,0.0000,0.0000,0.0000,0.0000,0.0000,0.0000,0.0000,0.0000,0.0000,0.0000,0.0000,0.0000,0.0000,0.0000,0.0000,0.0000,0.0000,0.0000,0.0000,0.0000,0.0000,-0.0500,0.2072,0.2072,0.2072,0.2072,1,5,1749741146101621859,1749741146097166077,1749741146101677481,1749741146101663898,1749741146101688147,1749741146101689814,1749741146102013798,1749741146102019464,1749741146102054421,1749741146097164202,0
113,1749741146107483446,1749741146106891725,1749741146106891725,1749741146107488154,16.2748,561.8205,33.9500,-0.0895,0.0639,0.1779,1.2621,1.6628,-8.2645,0.0000,0.0000,0.0000,0.0578,-0.1296,0.0189,-0.0352,0.0097,0.0246,-0.0590,-1.7882,-0.1012,-0.0001,0.0005,-0.0003,0.0000,324792526,1749741146107083590,-0.0590,-1.7882,-0.1012,0.9999,0.0055,-0.0021,0.0095,0.0000,0.0000,0.0000,0.00000000,0.00000000,0.000,0.000,0.000,0.000,0.000,0,0,0.000,0.000,0.000,0.000,0.000,0,0,0,0,0,0,0,0.0000,0.0000,-0.0500,0.0000,0.0000,0.0000,0.0000,0.0000,0.0000,0.0000,0.0000,0.0000,0.0000,0.0000,0.0000,0.0000,0.0000,0.0000,0.0000,0.0000,0.0000,0.0000,0.0000,0.0000,0.0000,0.0000,0.0000,0.0000,0.0000,0.0000,0.0000,0.0000,0.0000,0.0000,-0.0500,0.2072,0.2072,0.2072,0.2072,1,5,1749741146106896225,1749741146102072628,1749741146107109631,1749741146107091757,1749741146107120630,1749741146107122588,1749741146107444573,1749741146107450197,1749741146107484612,1749741146102070753,0
114,1749741146112367456,1749741146111628950,1749741146111628950,1749741146112372831,16.2743,561.8205,33.9500,0.2482,-0.0788,0.1076,1.7603,-8.0415,-6.6183,0.0000,0.0000,0.0000,0.0588,-0.1298,0.0185,0.0593,-0.0198,0.0523,-0.0590,-1.7883,-0.1012,0.0004,0.0004,-0.0001,0.0000,324800857,1749741146111971059,-0.0590,-1.7883,-0.1012,0.9999,0.0057,-0.0021,0.0093,0.0000,0.0000,0.0000,0.00000000,0.00000000,0.000,0.000,0.000,0.000,0.000,0,0,0.000,0.000,0.000,0.000,0.000,0,0,0,0,0,0,0,0.0000,0.0000,-0.0500,0.0000,0.0000,0.0000,0.0000,0.0000,0.0000,0.0000,0.0000,0.0000,0.0000,0.0000,0.0000,0.0000,0.0000,0.0000,0.0000,0.0000,0.0000,0.0000,0.0000,0.0000,0.0000,0.0000,0.0000,0.0000,0.0000,0.0000,0.0000,0.0000,0.0000,0.0000,-0.0500,0.2072,0.2072,0.2072,0.2072,1,5,1749741146111633367,1749741146107502528,1749741146111994058,1749741146111979225,1749741146112005140,1749741146112006849,1749741146112327708,1749741146112333832,1749741146112368622,1749741146107500653,0
115,1749741146117112264,1749741146116623205,1749741146116623205,1749741146117117181,16.2751,561.8205,33.9500,-0.1033,-0.0746,-0.2418,-4.7132,2.3280,-11.3231,0.0000,0.0000,0.0000,0.0591,-0.1298,0.0185,0.0051,-0.0381,-0.0458,-0.0590,-1.7883,-0.1012,0.0004,0.0004,-0.0001,0.0000,324800857,1749741146111971059,-0.0590,-1.7883,-0.1012,0.9999,0.0057,-0.0021,0.0093,0.0000,0.0000,0.0000,0.00000000,0.00000000,0.000,0.000,0.000,0.000,0.000,0,0,0.000,0.000,0.000,0.000,0.000,0,0,0,0,0,0,0,0.0000,0.0000,-0.0500,0.0000,0.0000,0.0000,0.0000,0.0000,0.0000,0.0000,0.0000,0.0000,0.0000,0.0000,0.0000,0.0000,0.0000,0.0000,0.0000,0.0000,0.0000,0.0000,0.0000,0.0000,0.0000,0.0000,0.0000,0.0000,0.0000,0.0000,0.0000,0.0000,0.0000,0.0000,-0.0500,0.2072,0.2072,0.2072,0.2072,1,5,1749741146116627622,1749741146112387705,1749741146116682619,1749741146116669495,1749741146116693827,1749741146116695452,1749741146117073141,1749741146117078849,1749741146117113431,1749741146112385455,0
116,1749741146122290635,1749741146121736204,1749741146121736204,1749741146122295593,16.2738,561.8205,33.9500,-0.0767,0.1204,0.1023,0.6634,5.5341,-9.7461,0.0000,0.0000,0.0000,0.0584,-0.1296,0.0185,-0.0222,0.0148,0.0036,-0.0590,-1.7883,-0.1012,0.0004,0.0004,-0.0001,0.0000,324800857,1749741146111971059,-0.0590,-1.7883,-0.1012,0.9999,0.0057,-0.0021,0.0093,0.0000,0.0000,0.0000,0.00000000,0.00000000,0.000,0.000,0.000,0.000,0.000,0,0,0.000,0.000,0.000,0.000,0.000,0,0,0,0,0,0,0,0.0000,0.0000,-0.0500,0.0000,0.0000,0.0000,0.0000,0.0000,0.0000,0.0000,0.0000,0.0000,0.0000,0.0000,0.0000,0.0000,0.0000,0.0000,0.0000,0.0000,0.0000,0.0000,0.0000,0.0000,0.0000,0.0000,0.0000,0.0000,0.0000,0.0000,0.0000,0.0000,0.0000,0.0000,-0.0500,0.2072,0.2072,0.2072,0.2072,1,5,1749741146121740704,1749741146117132055,1749741146121795618,1749741146121782410,1749741146121806284,1749741146121807951,1749741146122250595,1749741146122256637,1749741146122291843,1749741146117130139,0
117,1749741146127049610,1749741146126615506,1749741146126615506,1749741146127054318,16.2736,561.8205,33.9500,0.1726,-0.1033,0.1598,4.3348,-8.7425,-7.5774,0.0000,0.0000,0.0000,0.0586,-0.1300,0.0185,0.0427,-0.0246,0.0557,-0.0590,-1.7883,-0.1012,0.0004,0.0004,-0.0001,0.0000,324800857,1749741146111971059,-0.0590,-1.7883,-0.1012,0.9999,0.0057,-0.0021,0.0093,0.0000,0.0000,0.0000,0.00000000,0.00000000,0.000,0.000,0.000,0.000,0.000,0,0,0.000,0.000,0.000,0.000,0.000,0,0,0,0,0,0,0,0.0000,0.0000,-0.0500,0.0000,0.0000,0.0000,0.0000,0.0000,0.0000,0.0000,0.0000,0.0000,0.0000,0.0000,0.0000,0.0000,0.0000,0.0000,0.0000,0.0000,0.0000,0.0000,0.0000,0.0000,0.0000,0.0000,0.0000,0.0000,0.0000,0.0000,0.0000,0.0000,0.0000,0.0000,-0.0500,0.2072,0.2072,0.2072,0.2072,1,5,1749741146126620048,1749741146122310676,1749741146126675211,1749741146126661879,1749741146126686128,1749741146126687794,1749741146127010945,1749741146127016611,1749741146127050818,1749741146122308801,0
118,1749741146132283478,1749741146131693173,1749741146131693173,1749741146132288186,16.2734,561.8205,33.9500,-0.0181,-0.0671,-0.2269,-4.1935,1.5049,-12.8047,0.0000,0.0000,0.0000,0.0595,-0.1297,0.0189,0.0225,-0.0388,-0.0385,-0.0590,-1.7882,-0.1012,0.0002,0.0004,-0.0002,0.0000,324809905,1749741146131883539,-0.0590,-1.7882,-0.1012,0.9999,0.0056,-0.0021,0.0095,0.0000,0.0000,0.0000,0.00000000,0.00000000,0.000,0.000,0.000,0.000,0.000,0,0,0.000,0.000,0.000,0.000,0.000,0,0,0,0,0,0,0,0.0000,0.0000,-0.0500,0.0000,0.0000,0.0000,0.0000,0.0000,0.0000,0.0000,0.0000,0.0000,0.0000,0.0000,0.0000,0.0000,0.0000,0.0000,0.0000,0.0000,0.0000,0.0000,0.0000,0.0000,0.0000,0.0000,0.0000,0.0000,0.0000,0.0000,0.0000,0.0000,0.0000,0.0000,-0.0500,0.2072,0.2072,0.2072,0.2072,1,5,1749741146131697631,1749741146127069567,1749741146131909746,1749741146131892080,1749741146131921579,1749741146131923370,1749741146132243313,1749741146132249479,1749741146132284644,1749741146127067692,0
119,1749741146137748168,1749741146137273983,1749741146137273983,1749741146137753251,16.2736,561.6598,33.9500,-0.1577,0.0927,0.0618,-0.8119,5.6513,-10.3092,0.0000,0.0000,0.0000,0.0584,-0.1295,0.0189,-0.0376,0.0050,-0.0051,-0.0590,-1.7882,-0.1012,0.0002,0.0004,-0.0002,0.0000,324809905,1749741146131883539,-0.0590,-1.7882,-0.1012,0.9999,0.0056,-0.0021,0.0095,0.0000,0.0000,0.0000,0.00000000,0.00000000,0.000,0.000,0.000,0.000,0.000,0,0,0.000,0.000,0.000,0.000,0.000,0,0,0,0,0,0,0,0.0000,0.0000,-0.0500,0.0000,0.0000,0.0000,0.0000,0.0000,0.0000,0.0000,0.0000,0.0000,0.0000,0.0000,0.0000,0.0000,0.0000,0.0000,0.0000,0.0000,0.0000,0.0000,0.0000,0.0000,0.0000,0.0000,0.0000,0.0000,0.0000,0.0000,0.0000,0.0000,0.0000,0.0000,-0.0500,0.2072,0.2072,0.2072,0.2072,1,5,1749741146137278732,1749741146132954695,1749741146137372436,1749741146137359437,1749741146137384102,1749741146137385852,1749741146137708211,1749741146137714336,1749741146137749334,1749741146132302643,0
120,1749741146142867458,1749741146142306069,1749741146142306069,1749741146142872166,16.2724,561.6598,33.9500,0.2312,-0.0160,0.2173,5.8148,-8.4052,-9.7628,0.0000,0.0000,0.0000,0.0588,-0.1296,0.0185,0.0520,-0.0020,0.0690,-0.0590,-1.7883,-0.1012,0.0005,-0.0000,0.0001,0.0000,324817572,1749741146142466603,-0.0590,-1.7883,-0.1012,0.9999,0.0057,-0.0021,0.0093,0.0000,0.0000,0.0000,0.00000000,0.00000000,0.000,0.000,0.000,0.000,0.000,0,0,0.000,0.000,0.000,0.000,0.000,0,0,0,0,0,0,0,0.0000,0.0000,-0.0500,0.0000,0.0000,0.0000,0.0000,0.0000,0.0000,0.0000,0.0000,0.0000,0.0000,0.0000,0.0000,0.0000,0.0000,0.0000,0.0000,0.0000,0.0000,0.0000,0.0000,0.0000,0.0000,0.0000,0.0000,0.0000,0.0000,0.0000,0.0000,0.0000,0.0000,0.0000,-0.0500,0.2072,0.2072,0.2072,0.2072,1,5,1749741146142310444,1749741146137769042,1749741146142492935,1749741146142474894,1749741146142504559,1749741146142506309,1749741146142827793,1749741146142833710,1749741146142868666,1749741146137767208,0
121,1749741146147151289,1749741146146655814,1749741146146655814,1749741146147155956,16.2719,561.6598,33.9500,-0.0309,-0.1310,-0.2439,-2.6823,1.8160,-10.3760,0.0000,0.0000,0.0000,0.0596,-0.1295,0.0185,0.0244,-0.0450,-0.0353,-0.0590,-1.7883,-0.1012,0.0005,-0.0000,0.0001,0.0000,324817572,1749741146142466603,-0.0590,-1.7883,-0.1012,0.9999,0.0057,-0.0021,0.0093,0.0000,0.0000,0.0000,0.00000000,0.00000000,0.000,0.000,0.000,0.000,0.000,0,0,0.000,0.000,0.000,0.000,0.000,0,0,0,0,0,0,0,0.0000,0.0000,-0.0500,0.0000,0.0000,0.0000,0.0000,0.0000,0.0000,0.0000,0.0000,0.0000,0.0000,0.0000,0.0000,0.0000,0.0000,0.0000,0.0000,0.0000,0.0000,0.0000,0.0000,0.0000,0.0000,0.0000,0.0000,0.0000,0.0000,0.0000,0.0000,0.0000,0.0000,0.0000,-0.0500,0.2072,0.2072,0.2072,0.2072,1,5,1749741146146660647,1749741146142886624,1749741146146778058,1749741146146764892,1749741146146789349,1749741146146791099,1749741146147112541,1749741146147118207,1749741146147152456,1749741146142884749,0
122,1749741146152074964,1749741146151555698,1749741146151555698,1749741146152079839,16.2709,561.6598,33.9500,-0.1981,0.0788,-0.0352,-3.4295,8.9243,-9.6292,0.0000,0.0000,0.0000,0.0584,-0.1292,0.0190,-0.0498,-0.0037,-0.0352,-0.0591,-1.7882,-0.1012,0.0001,0.0005,-0.0003,0.0000,324826402,1749741146151677275,-0.0591,-1.7882,-0.1012,0.9999,0.0055,-0.0020,0.0095,0.0000,0.0000,0.0000,0.00000000,0.00000000,0.000,0.000,0.000,0.000,0.000,0,0,0.000,0.000,0.000,0.000,0.000,0,0,0,0,0,0,0,0.0000,0.0000,-0.0500,0.0000,0.0000,0.0000,0.0000,0.0000,0.0000,0.0000,0.0000,0.0000,0.0000,0.0000,0.0000,0.0000,0.0000,0.0000,0.0000,0.0000,0.0000,0.0000,0.0000,0.0000,0.0000,0.0000,0.0000,0.0000,0.0000,0.0000,0.0000,0.0000,0.0000,0.0000,-0.0500,0.2072,0.2072,0.2072,0.2072,1,5,1749741146151559448,1749741146147170955,1749741146151701649,1749741146151685608,1749741146151713523,1749741146151715273,1749741146152035841,1749741146152042424,1749741146152076339,1749741146147169080,0
123,1749741146157920385,1749741146157329248,1749741146157329248,1749741146157925052,16.2695,561.6598,33.9500,0.1949,0.0000,0.2738,4.0498,-6.5820,-9.0614,0.0000,0.0000,0.0000,0.0583,-0.1295,0.0185,0.0318,-0.0025,0.0678,-0.0590,-1.7883,-0.1012,0.0003,-0.0004,0.0003,0.0000,324834534,1749741146157521238,-0.0590,-1.7883,-0.1012,0.9999,0.0056,-0.0020,0.0093,0.0000,0.0000,0.0000,0.00000000,0.00000000,0.000,0.000,0.000,0.000,0.000,0,0,0.000,0.000,0.000,0.000,0.000,0,0,0,0,0,0,0,0.0000,0.0000,-0.0500,0.0000,0.0000,0.0000,0.0000,0.0000,0.0000,0.0000,0.0000,0.0000,0.0000,0.0000,0.0000,0.0000,0.0000,0.0000,0.0000,0.0000,0.0000,0.0000,0.0000,0.0000,0.0000,0.0000,0.0000,0.0000,0.0000,0.0000,0.0000,0.0000,0.0000,0.0000,-0.0500,0.2072,0.2072,0.2072,0.2072,1,5,1749741146157333747,1749741146152094463,1749741146157547529,1749741146157529654,1749741146157558945,1749741146157560736,1749741146157880512,1749741146157886095,1749741146157921594,1749741146152092588,0
124,1749741146162857143,1749741146162286796,1749741146162286796,1749741146162861851,16.2697,561.6598,33.9500,0.1193,-0.1204,-0.1449,-1.1831,-3.3664,-10.4213,0.0000,0.0000,0.0000,0.0596,-0.1295,0.0185,0.0610,-0.0418,-0.0031,-0.0590,-1.7883,-0.1012,0.0003,-0.0004,0.0003,0.0000,324834534,1749741146157521238,-0.0590,-1.7883,-0.1012,0.9999,0.0056,-0.0020,0.0093,0.0000,0.0000,0.0000,0.00000000,0.00000000,0.000,0.000,0.000,0.000,0.000,0,0,0.000,0.000,0.000,0.000,0.000,0,0,0,0,0,0,0,0.0000,0.0000,-0.0500,0.0000,0.0000,0.0000,0.0000,0.0000,0.0000,0.0000,0.0000,0.0000,0.0000,0.0000,0.0000,0.0000,0.0000,0.0000,0.0000,0.0000,0.0000,0.0000,0.0000,0.0000,0.0000,0.0000,0.0000,0.0000,0.0000,0.0000,0.0000,0.0000,0.0000,0.0000,-0.0500,0.2072,0.2072,0.2072,0.2072,1,5,1749741146162291962,1749741146157939884,1749741146162482370,1749741146162469620,1749741146162494119,1749741146162495869,1749741146162817811,1749741146162823644,1749741146162858351,1749741146157938051,0
